x_num,hand_sensor_id,hand_roll,hand_pitch,hand_yaw,hand_acc_x,hand_acc_y,hand_acc_z,head_sensor_id,head_roll,head_pitch,head_yaw,head_acc_x,head_acc_y,head_acc_z
0.1,,,,,,,,ID:100-1,15.97,-12.43,172.56,-0.003,0.002,0.002
0.2,,,,,,,,ID:100-1,15.94,-12.40,172.58,-0.004,0.002,0.003
0.30000000000000004,,,,,,,,ID:100-1,15.91,-12.37,172.60,-0.004,0.002,0.003
0.4,,,,,,,,ID:100-1,15.89,-12.34,172.62,-0.005,0.002,0.004
0.5,,,,,,,,ID:100-1,15.87,-12.31,172.64,-0.005,0.003,0.004
0.6,,,,,,,,ID:100-1,15.85,-12.28,172.66,0.0,0.0,0.0
0.7,,,,,,,,ID:100-1,15.84,-12.25,172.67,0.0,0.0,0.0
0.7999999999999999,,,,,,,,ID:100-1,15.83,-12.22,172.69,0.0,0.0,0.0
0.8999999999999999,,,,,,,,ID:100-1,15.82,-12.19,172.71,0.0,0.0,0.0
0.9999999999999999,,,,,,,,ID:100-1,15.80,-12.17,172.73,0.0,0.0,0.0
1.0999999999999999,,,,,,,,ID:100-1,15.79,-12.14,172.74,0.0,0.0,0.0
1.2,,,,,,,,ID:100-1,15.77,-12.12,172.75,0.0,0.0,0.0
1.3,,,,,,,,ID:100-1,15.75,-12.10,172.77,0.0,0.0,0.0
1.4000000000000001,,,,,,,,ID:100-1,15.73,-12.09,172.78,0.0,0.001,0.0
1.5000000000000002,,,,,,,,ID:100-1,15.71,-12.07,172.79,-0.001,0.001,-0.001
1.6000000000000003,,,,,,,,ID:100-1,15.69,-12.06,172.80,-0.001,0.001,-0.001
1.7000000000000004,,,,,,,,ID:100-1,15.66,-12.04,172.82,-0.002,0.002,-0.002
1.8000000000000005,,,,,,,,ID:100-1,15.64,-12.03,172.83,-0.002,0.002,-0.002
1.9000000000000006,,,,,,,,ID:100-1,15.61,-12.01,172.84,-0.003,0.003,-0.003
2.0000000000000004,,,,,,,,ID:100-1,15.58,-12.00,172.85,-0.003,0.003,-0.003
2.1000000000000005,,,,,,,,ID:100-1,15.55,-11.99,172.85,-0.004,0.004,-0.003
2.2000000000000006,,,,,,,,ID:100-1,15.52,-11.97,172.86,-0.004,0.004,-0.004
2.3000000000000007,,,,,,,,ID:100-1,15.49,-11.96,172.87,-0.005,0.004,-0.004
2.400000000000001,,,,,,,,ID:100-1,15.45,-11.94,172.88,-0.005,0.005,-0.004
2.500000000000001,,,,,,,,ID:100-1,15.41,-11.93,172.89,-0.006,0.005,-0.004
2.600000000000001,,,,,,,,ID:100-1,15.37,-11.91,172.90,-0.007,0.006,-0.005
2.700000000000001,,,,,,,,ID:100-1,15.33,-11.89,172.92,-0.008,0.006,-0.005
2.800000000000001,,,,,,,,ID:100-1,15.28,-11.87,172.94,-0.009,0.007,-0.005
2.9000000000000012,,,,,,,,ID:100-1,15.24,-11.84,172.96,-0.009,0.007,-0.005
3.0000000000000013,,,,,,,,ID:100-1,15.19,-11.81,172.97,-0.01,0.008,-0.005
3.1000000000000014,,,,,,,,ID:100-1,15.13,-11.78,172.99,-0.01,0.008,-0.006
3.2000000000000015,,,,,,,,ID:100-1,15.08,-11.74,173.01,-0.011,0.009,-0.006
3.3000000000000016,,,,,,,,ID:100-1,15.03,-11.70,173.02,-0.011,0.009,-0.006
3.4000000000000017,,,,,,,,ID:100-1,14.98,-11.65,173.03,-0.012,0.01,-0.005
3.5000000000000018,,,,,,,,ID:100-1,14.93,-11.59,173.04,-0.013,0.011,-0.005
3.600000000000002,,,,,,,,ID:100-1,14.88,-11.53,173.05,0.0,0.0,0.0
3.700000000000002,,,,,,,,ID:100-1,14.83,-11.48,173.06,0.0,0.0,0.0
3.800000000000002,,,,,,,,ID:100-1,14.77,-11.42,173.08,0.0,0.0,0.0
3.900000000000002,,,,,,,,ID:100-1,14.72,-11.37,173.10,0.0,0.0,0.0
4.000000000000002,,,,,,,,ID:100-1,14.67,-11.31,173.12,0.0,0.0,0.0
4.100000000000001,,,,,,,,ID:100-1,14.62,-11.26,173.13,0.0,0.0,0.0
4.200000000000001,,,,,,,,ID:100-1,14.57,-11.21,173.15,0.0,0.0,0.0
4.300000000000001,,,,,,,,ID:100-1,14.53,-11.15,173.16,0.0,0.001,0.0
4.4,,,,,,,,ID:100-1,14.49,-11.09,173.16,-0.001,0.001,0.0
4.5,,,,,,,,ID:100-1,14.45,-11.03,173.17,-0.001,0.002,0.0
4.6,,,,,,,,ID:100-1,14.41,-10.96,173.19,-0.002,0.002,0.0
4.699999999999999,,,,,,,,ID:100-1,14.37,-10.90,173.21,-0.002,0.003,-0.001
4.799999999999999,,,,,,,,ID:100-1,14.33,-10.84,173.23,0.0,0.0,0.0
4.899999999999999,,,,,,,,ID:100-1,14.28,-10.78,173.25,0.0,0.0,0.0
4.999999999999998,,,,,,,,ID:100-1,14.23,-10.73,173.28,0.0,0.0,-0.001
5.099999999999998,,,,,,,,ID:100-1,14.17,-10.68,173.31,-0.001,0.001,-0.001
5.1999999999999975,,,,,,,,ID:100-1,14.11,-10.64,173.34,-0.002,0.001,-0.002
5.299999999999997,,,,,,,,ID:100-1,14.06,-10.60,173.37,-0.003,0.002,-0.004
5.399999999999997,,,,,,,,ID:100-1,14.01,-10.56,173.41,-0.004,0.003,-0.005
5.4999999999999964,,,,,,,,ID:100-1,13.95,-10.52,173.45,-0.005,0.004,-0.006
5.599999999999996,,,,,,,,ID:100-1,13.88,-10.48,173.50,-0.006,0.004,-0.007
5.699999999999996,,,,,,,,ID:100-1,13.80,-10.45,173.56,-0.006,0.005,-0.008
5.799999999999995,,,,,,,,ID:100-1,13.71,-10.43,173.64,-0.007,0.006,-0.009
5.899999999999995,,,,,,,,ID:100-1,13.61,-10.41,173.73,-0.007,0.007,-0.01
5.999999999999995,,,,,,,,ID:100-1,13.50,-10.40,173.84,-0.008,0.007,-0.011
6.099999999999994,,,,,,,,ID:100-1,13.39,-10.38,173.96,-0.008,0.008,-0.012
6.199999999999994,,,,,,,,ID:100-1,13.27,-10.37,174.08,-0.008,0.009,-0.013
6.299999999999994,,,,,,,,ID:100-1,13.14,-10.35,174.22,-0.009,0.009,-0.014
6.399999999999993,,,,,,,,ID:100-1,13.00,-10.33,174.36,-0.009,0.01,-0.016
6.499999999999993,,,,,,,,ID:100-1,12.86,-10.32,174.52,-0.008,0.011,-0.017
6.5999999999999925,,,,,,,,ID:100-1,12.72,-10.32,174.69,-0.009,0.011,-0.019
6.699999999999992,,,,,,,,ID:100-1,12.57,-10.33,174.86,-0.009,0.011,-0.021
6.799999999999992,,,,,,,,ID:100-1,12.43,-10.33,175.04,-0.009,0.011,-0.022
6.8999999999999915,,,,,,,,ID:100-1,12.28,-10.33,175.21,0.0,0.0,0.0
6.999999999999991,,,,,,,,ID:100-1,12.13,-10.33,175.37,0.0,0.0,0.0
7.099999999999991,,,,,,,,ID:100-1,11.98,-10.32,175.52,0.0,0.0,0.0
7.19999999999999,,,,,,,,ID:100-1,11.82,-10.29,175.66,0.0,-0.001,0.0
7.29999999999999,,,,,,,,ID:100-1,11.65,-10.25,175.80,0.0,-0.001,0.0
7.39999999999999,,,,,,,,ID:100-1,11.48,-10.21,175.94,0.0,-0.001,0.001
7.499999999999989,,,,,,,,ID:100-1,11.31,-10.17,176.06,0.0,0.0,0.0
7.599999999999989,,,,,,,,ID:100-1,11.15,-10.13,176.19,0.0,0.0,0.0
7.699999999999989,,,,,,,,ID:100-1,10.99,-10.08,176.31,0.0,0.0,0.0
7.799999999999988,,,,,,,,ID:100-1,10.83,-10.05,176.43,0.001,-0.001,0.0
7.899999999999988,,,,,,,,ID:100-1,10.68,-10.01,176.55,0.001,-0.001,-0.001
7.999999999999988,,,,,,,,ID:100-1,10.53,-9.98,176.66,0.0,0.0,0.0
8.099999999999987,,,,,,,,ID:100-1,10.38,-9.95,176.76,0.0,0.0,0.0
8.199999999999987,,,,,,,,ID:100-1,10.23,-9.93,176.86,0.0,0.0,0.0
8.299999999999986,,,,,,,,ID:100-1,10.09,-9.90,176.95,0.0,0.0,0.0
8.399999999999986,,,,,,,,ID:100-1,9.96,-9.87,177.03,0.0,0.0,0.0
8.499999999999986,,,,,,,,ID:100-1,9.84,-9.83,177.10,0.0,0.0,0.001
8.599999999999985,,,,,,,,ID:100-1,9.72,-9.80,177.17,0.0,0.0,0.002
8.699999999999985,,,,,,,,ID:100-1,9.61,-9.77,177.23,0.0,0.0,0.004
8.799999999999985,,,,,,,,ID:100-1,9.50,-9.73,177.29,0.001,0.0,0.006
8.899999999999984,,,,,,,,ID:100-1,9.41,-9.70,177.34,0.001,0.0,0.008
8.999999999999984,,,,,,,,ID:100-1,9.33,-9.68,177.39,0.002,0.0,0.01
9.099999999999984,,,,,,,,ID:100-1,9.25,-9.66,177.43,0.002,-0.001,0.011
9.199999999999983,,,,,,,,ID:100-1,9.19,-9.64,177.46,0.003,-0.001,0.013
9.299999999999983,,,,,,,,ID:100-1,9.13,-9.63,177.49,0.003,0.0,0.015
9.399999999999983,,,,,,,,ID:100-1,9.08,-9.61,177.51,0.003,0.0,0.016
9.499999999999982,,,,,,,,ID:100-1,9.04,-9.60,177.53,0.003,0.0,0.018
9.599999999999982,,,,,,,,ID:100-1,9.00,-9.58,177.54,0.002,0.001,0.02
9.699999999999982,,,,,,,,ID:100-1,8.96,-9.56,177.56,0.002,0.002,0.021
9.799999999999981,,,,,,,,ID:100-1,8.92,-9.53,177.56,0.001,0.002,0.023
9.89999999999998,,,,,,,,ID:100-1,8.89,-9.51,177.57,0.001,0.003,0.024
9.99999999999998,,,,,,,,ID:100-1,8.85,-9.49,177.58,0.001,0.003,0.026
10.09999999999998,,,,,,,,ID:100-1,8.82,-9.47,177.58,0.0,0.004,0.027
10.19999999999998,,,,,,,,ID:100-1,8.79,-9.45,177.59,0.0,0.004,0.027
10.29999999999998,,,,,,,,ID:100-1,8.76,-9.43,177.59,0.0,0.005,0.028
10.399999999999979,,,,,,,,ID:100-1,8.73,-9.41,177.60,0.0,0.0,0.0
10.499999999999979,,,,,,,,ID:100-1,8.70,-9.39,177.60,0.0,0.0,0.0
10.599999999999978,,,,,,,,ID:100-1,8.67,-9.37,177.61,0.0,0.0,0.0
10.699999999999978,,,,,,,,ID:100-1,8.63,-9.35,177.61,0.0,0.0,0.0
10.799999999999978,,,,,,,,ID:100-1,8.60,-9.33,177.61,0.0,0.0,0.0
10.899999999999977,,,,,,,,ID:100-1,8.57,-9.32,177.62,0.0,0.0,0.0
10.999999999999977,,,,,,,,ID:100-1,8.53,-9.30,177.63,0.0,0.0,0.0
11.099999999999977,,,,,,,,ID:100-1,8.49,-9.28,177.63,0.0,0.0,0.0
11.199999999999976,,,,,,,,ID:100-1,8.46,-9.27,177.64,0.0,0.0,-0.001
11.299999999999976,,,,,,,,ID:100-1,8.42,-9.25,177.65,0.0,0.0,-0.001
11.399999999999975,,,,,,,,ID:100-1,8.38,-9.23,177.66,0.0,0.0,-0.002
11.499999999999975,,,,,,,,ID:100-1,8.34,-9.21,177.67,0.0,0.0,-0.003
11.599999999999975,,,,,,,,ID:100-1,8.29,-9.19,177.68,0.0,0.0,-0.004
11.699999999999974,,,,,,,,ID:100-1,8.25,-9.17,177.69,-0.001,0.0,-0.005
11.799999999999974,,,,,,,,ID:100-1,8.21,-9.15,177.70,-0.001,-0.001,-0.006
11.899999999999974,,,,,,,,ID:100-1,8.17,-9.13,177.72,0.0,-0.001,-0.007
11.999999999999973,,,,,,,,ID:100-1,8.13,-9.11,177.73,0.0,-0.001,-0.008
12.099999999999973,,,,,,,,ID:100-1,8.10,-9.09,177.75,0.0,-0.002,-0.009
12.199999999999973,,,,,,,,ID:100-1,8.06,-9.06,177.76,0.0,-0.002,-0.01
12.299999999999972,,,,,,,,ID:100-1,8.03,-9.04,177.77,0.0,-0.003,-0.01
12.399999999999972,,,,,,,,ID:100-1,7.99,-9.01,177.79,0.0,-0.003,-0.011
12.499999999999972,,,,,,,,ID:100-1,7.96,-8.98,177.80,0.0,-0.004,-0.012
12.599999999999971,,,,,,,,ID:100-1,7.93,-8.96,177.82,0.0,-0.004,-0.013
12.69999999999997,,,,,,,,ID:100-1,7.90,-8.93,177.83,0.0,-0.004,-0.014
12.79999999999997,,,,,,,,ID:100-1,7.87,-8.90,177.85,0.0,-0.005,-0.014
12.89999999999997,,,,,,,,ID:100-1,7.84,-8.87,177.86,0.0,0.0,0.0
12.99999999999997,,,,,,,,ID:100-1,7.81,-8.85,177.88,0.0,0.0,0.0
13.09999999999997,,,,,,,,ID:100-1,7.79,-8.82,177.89,0.0,0.0,0.0
13.199999999999969,,,,,,,,ID:100-1,7.76,-8.79,177.91,0.0,0.0,0.0
13.299999999999969,,,,,,,,ID:100-1,7.74,-8.75,177.92,0.0,0.0,0.0
13.399999999999968,,,,,,,,ID:100-1,7.73,-8.72,177.93,0.0,0.0,0.0
13.499999999999968,,,,,,,,ID:100-1,7.71,-8.68,177.94,0.0,0.0,0.0
13.599999999999968,,,,,,,,ID:100-1,7.70,-8.65,177.95,0.0,0.0,0.0
13.699999999999967,,,,,,,,ID:100-1,7.69,-8.61,177.96,0.0,0.0,0.0
13.799999999999967,,,,,,,,ID:100-1,7.68,-8.56,177.96,0.0,0.0,0.0
13.899999999999967,,,,,,,,ID:100-1,7.68,-8.52,177.96,0.0,0.0,0.0
13.999999999999966,,,,,,,,ID:100-1,7.69,-8.47,177.97,0.0,0.0,0.0
14.099999999999966,,,,,,,,ID:100-1,7.70,-8.42,177.97,0.0,0.0,0.0
14.199999999999966,,,,,,,,ID:100-1,7.72,-8.35,177.96,0.0,0.0,-0.001
14.299999999999965,,,,,,,,ID:100-1,7.76,-8.29,177.96,0.0,0.0,0.0
14.399999999999965,,,,,,,,ID:100-1,7.79,-8.24,177.95,0.0,0.0,0.0
14.499999999999964,,,,,,,,ID:100-1,7.80,-8.19,177.95,0.0,0.0,0.002
14.599999999999964,,,,,,,,ID:100-1,7.80,-8.16,177.95,0.0,0.001,0.003
14.699999999999964,,,,,,,,ID:100-1,7.80,-8.13,177.95,0.0,0.002,0.005
14.799999999999963,,,,,,,,ID:100-1,7.79,-8.11,177.95,-0.001,0.002,0.006
14.899999999999963,,,,,,,,ID:100-1,7.78,-8.09,177.96,-0.002,0.002,0.007
14.999999999999963,,,,,,,,ID:100-1,7.77,-8.07,177.97,-0.002,0.003,0.008
15.099999999999962,,,,,,,,ID:100-1,7.76,-8.06,177.98,-0.003,0.003,0.009
15.199999999999962,,,,,,,,ID:100-1,7.75,-8.05,177.99,-0.003,0.004,0.011
15.299999999999962,,,,,,,,ID:100-1,7.73,-8.04,178.00,-0.003,0.004,0.012
15.399999999999961,,,,,,,,ID:100-1,7.72,-8.03,178.01,-0.003,0.005,0.012
15.499999999999961,,,,,,,,ID:100-1,7.71,-8.01,178.02,0.0,0.0,0.0
15.59999999999996,,,,,,,,ID:100-1,7.71,-8.00,178.02,0.0,0.0,0.0
15.69999999999996,,,,,,,,ID:100-1,7.70,-7.99,178.02,0.0,0.0,0.0
15.79999999999996,,,,,,,,ID:100-1,7.70,-7.97,178.03,0.0,0.0,0.001
15.89999999999996,,,,,,,,ID:100-1,7.70,-7.96,178.03,0.0,0.0,0.001
15.99999999999996,,,,,,,,ID:100-1,7.69,-7.94,178.03,0.0,0.001,0.002
16.09999999999996,,,,,,,,ID:100-1,7.69,-7.93,178.04,0.0,0.001,0.002
16.19999999999996,,,,,,,,ID:100-1,7.68,-7.91,178.04,-0.001,0.001,0.003
16.29999999999996,,,,,,,,ID:100-1,7.67,-7.90,178.04,-0.001,0.002,0.003
16.399999999999963,,,,,,,,ID:100-1,7.66,-7.88,178.04,-0.002,0.002,0.003
16.499999999999964,,,,,,,,ID:100-1,7.66,-7.86,178.04,-0.003,0.002,0.003
16.599999999999966,,,,,,,,ID:100-1,7.65,-7.85,178.04,-0.003,0.003,0.002
16.699999999999967,,,,,,,,ID:100-1,7.65,-7.84,178.05,-0.004,0.003,0.002
16.79999999999997,,,,,,,,ID:100-1,7.64,-7.83,178.05,-0.004,0.004,0.001
16.89999999999997,,,,,,,,ID:100-1,7.64,-7.81,178.05,-0.005,0.004,0.0
16.99999999999997,,,,,,,,ID:100-1,7.64,-7.80,178.05,-0.006,0.004,0.0
17.099999999999973,,,,,,,,ID:100-1,7.63,-7.80,178.05,-0.006,0.005,0.0
17.199999999999974,,,,,,,,ID:100-1,7.62,-7.80,178.05,-0.007,0.006,0.0
17.299999999999976,,,,,,,,ID:100-1,7.60,-7.80,178.05,-0.008,0.006,0.0
17.399999999999977,,,,,,,,ID:100-1,7.58,-7.80,178.05,-0.009,0.007,-0.001
17.49999999999998,,,,,,,,ID:100-1,7.57,-7.80,178.06,-0.01,0.007,-0.001
17.59999999999998,,,,,,,,ID:100-1,7.55,-7.81,178.06,-0.01,0.008,-0.001
17.69999999999998,,,,,,,,ID:100-1,7.53,-7.81,178.07,0.0,0.0,0.0
17.799999999999983,,,,,,,,ID:100-1,7.52,-7.81,178.07,0.0,0.0,0.0
17.899999999999984,,,,,,,,ID:100-1,7.51,-7.81,178.08,0.0,0.0,0.0
17.999999999999986,,,,,,,,ID:100-1,7.49,-7.81,178.08,0.0,0.0,0.0
18.099999999999987,,,,,,,,ID:100-1,7.48,-7.81,178.08,0.0,0.0,0.0
18.19999999999999,,,,,,,,ID:100-1,7.48,-7.81,178.09,0.0,0.0,0.0
18.29999999999999,,,,,,,,ID:100-1,7.47,-7.80,178.09,0.0,0.0,0.0
18.39999999999999,,,,,,,,ID:100-1,7.48,-7.79,178.10,0.0,0.0,0.0
18.499999999999993,,,,,,,,ID:100-1,7.47,-7.78,178.10,0.0,0.0,0.0
18.599999999999994,,,,,,,,ID:100-1,7.46,-7.77,178.10,0.0,0.0,0.0
18.699999999999996,,,,,,,,ID:100-1,7.45,-7.76,178.11,0.0,0.0,0.001
18.799999999999997,,,,,,,,ID:100-1,7.44,-7.75,178.11,0.0,0.0,0.0
18.9,,,,,,,,ID:100-1,7.43,-7.74,178.12,0.0,0.0,0.0
19.0,,,,,,,,ID:100-1,7.42,-7.73,178.12,0.0,0.0,0.0
19.1,,,,,,,,ID:100-1,7.42,-7.72,178.12,0.0,0.0,0.0
19.200000000000003,,,,,,,,ID:100-1,7.43,-7.70,178.13,0.0,0.0,0.0
19.300000000000004,,,,,,,,ID:100-1,7.43,-7.68,178.13,0.0,0.0,0.0
19.400000000000006,,,,,,,,ID:100-1,7.43,-7.67,178.13,0.0,0.0,0.0
19.500000000000007,,,,,,,,ID:100-1,7.43,-7.65,178.13,0.0,0.0,0.0
19.60000000000001,,,,,,,,ID:100-1,7.42,-7.63,178.13,0.0,0.0,0.0
19.70000000000001,,,,,,,,ID:100-1,7.42,-7.62,178.13,0.0,0.0,0.0
19.80000000000001,,,,,,,,ID:100-1,7.41,-7.60,178.14,0.0,0.0,0.0
19.900000000000013,,,,,,,,ID:100-1,7.41,-7.58,178.14,0.0,0.0,0.0
20.000000000000014,,,,,,,,ID:100-1,7.40,-7.56,178.14,0.0,0.0,0.0
20.100000000000016,,,,,,,,ID:100-1,7.39,-7.54,178.14,0.0,0.0,0.0
20.200000000000017,,,,,,,,ID:100-1,7.38,-7.52,178.15,0.0,0.0,0.0
20.30000000000002,,,,,,,,ID:100-1,7.37,-7.51,178.15,0.0,0.0,0.0
20.40000000000002,,,,,,,,ID:100-1,7.35,-7.50,178.15,0.0,0.0,0.0
20.50000000000002,,,,,,,,ID:100-1,7.33,-7.49,178.16,0.0,0.0,0.0
20.600000000000023,,,,,,,,ID:100-1,7.30,-7.48,178.17,0.0,0.0,0.0
20.700000000000024,,,,,,,,ID:100-1,7.28,-7.47,178.18,0.0,0.0,0.0
20.800000000000026,,,,,,,,ID:100-1,7.25,-7.47,178.19,0.0,0.0,-0.001
20.900000000000027,,,,,,,,ID:100-1,7.22,-7.46,178.20,0.0,0.0,-0.002
21.00000000000003,,,,,,,,ID:100-1,7.19,-7.46,178.21,0.0,0.0,-0.002
21.10000000000003,,,,,,,,ID:100-1,7.15,-7.46,178.22,0.0,0.0,-0.003
21.20000000000003,,,,,,,,ID:100-1,7.12,-7.45,178.23,0.0,0.0,-0.004
21.300000000000033,,,,,,,,ID:100-1,7.08,-7.45,178.24,0.0,0.0,-0.005
21.400000000000034,,,,,,,,ID:100-1,7.04,-7.44,178.24,0.0,0.0,-0.006
21.500000000000036,,,,,,,,ID:100-1,7.01,-7.42,178.25,0.0,0.0,-0.007
21.600000000000037,,,,,,,,ID:100-1,6.98,-7.40,178.25,0.0,0.0,-0.008
21.70000000000004,,,,,,,,ID:100-1,6.94,-7.38,178.25,0.0,0.0,-0.009
21.80000000000004,,,,,,,,ID:100-1,6.91,-7.36,178.25,0.0,0.0,-0.009
21.90000000000004,,,,,,,,ID:100-1,6.88,-7.32,178.25,0.0,0.0,-0.01
22.000000000000043,,,,,,,,ID:100-1,6.86,-7.29,178.25,-0.001,0.0,-0.01
22.100000000000044,,,,,,,,ID:100-1,6.85,-7.24,178.24,-0.003,0.0,-0.01
22.200000000000045,,,,,,,,ID:100-1,6.85,-7.17,178.23,-0.005,0.0,-0.01
22.300000000000047,,,,,,,,ID:100-1,6.85,-7.10,178.23,-0.006,0.0,-0.008
22.40000000000005,,,,,,,,ID:100-1,6.84,-7.02,178.24,-0.007,0.0,-0.007
22.50000000000005,,,,,,,,ID:100-1,6.81,-6.95,178.26,-0.007,0.0,-0.005
22.60000000000005,,,,,,,,ID:100-1,6.78,-6.89,178.28,-0.007,0.0,-0.004
22.700000000000053,,,,,,,,ID:100-1,6.74,-6.84,178.30,-0.007,0.002,-0.004
22.800000000000054,,,,,,,,ID:100-1,6.72,-6.79,178.31,-0.007,0.003,-0.004
22.900000000000055,,,,,,,,ID:100-1,6.71,-6.74,178.31,-0.007,0.004,-0.005
23.000000000000057,,,,,,,,ID:100-1,6.71,-6.69,178.32,-0.007,0.005,-0.005
23.10000000000006,,,,,,,,ID:100-1,6.72,-6.65,178.32,-0.007,0.006,-0.005
23.20000000000006,,,,,,,,ID:100-1,6.73,-6.61,178.33,-0.006,0.006,-0.005
23.30000000000006,,,,,,,,ID:100-1,6.74,-6.57,178.34,-0.006,0.006,-0.004
23.400000000000063,,,,,,,,ID:100-1,6.74,-6.54,178.34,-0.005,0.006,-0.003
23.500000000000064,,,,,,,,ID:100-1,6.73,-6.51,178.35,-0.005,0.006,-0.003
23.600000000000065,,,,,,,,ID:100-1,6.72,-6.48,178.36,-0.005,0.006,-0.002
23.700000000000067,,,,,,,,ID:100-1,6.70,-6.45,178.37,-0.005,0.007,-0.001
23.800000000000068,,,,,,,,ID:100-1,6.68,-6.43,178.37,-0.005,0.007,0.0
23.90000000000007,,,,,,,,ID:100-1,6.66,-6.41,178.38,-0.005,0.008,0.0
24.00000000000007,,,,,,,,ID:100-1,6.64,-6.40,178.38,-0.006,0.009,0.0
24.100000000000072,,,,,,,,ID:100-1,6.61,-6.39,178.38,-0.006,0.009,0.001
24.200000000000074,,,,,,,,ID:100-1,6.59,-6.38,178.38,-0.007,0.01,0.002
24.300000000000075,,,,,,,,ID:100-1,6.57,-6.37,178.39,-0.008,0.011,0.003
24.400000000000077,,,,,,,,ID:100-1,6.54,-6.37,178.39,-0.008,0.012,0.003
24.500000000000078,,,,,,,,ID:100-1,6.52,-6.37,178.39,-0.009,0.012,0.004
24.60000000000008,,,,,,,,ID:100-1,6.50,-6.36,178.39,0.0,0.0,0.0
24.70000000000008,,,,,,,,ID:100-1,6.49,-6.36,178.39,0.0,0.0,0.0
24.800000000000082,,,,,,,,ID:100-1,6.47,-6.36,178.38,0.0,0.0,0.0
24.900000000000084,,,,,,,,ID:100-1,6.44,-6.37,178.38,0.0,0.0,0.0
25.000000000000085,,,,,,,,ID:100-1,6.42,-6.37,178.38,0.0,0.0,0.0
25.100000000000087,,,,,,,,ID:100-1,6.40,-6.38,178.38,0.0,0.0,0.0
25.200000000000088,,,,,,,,ID:100-1,6.39,-6.38,178.37,0.0,0.0,0.0
25.30000000000009,,,,,,,,ID:100-1,6.37,-6.38,178.37,0.0,0.0,0.0
25.40000000000009,,,,,,,,ID:100-1,6.36,-6.38,178.37,0.0,0.0,0.0
25.500000000000092,,,,,,,,ID:100-1,6.34,-6.39,178.36,0.0,0.0,0.0
25.600000000000094,,,,,,,,ID:100-1,6.32,-6.39,178.36,0.0,0.0,0.0
25.700000000000095,,,,,,,,ID:100-1,6.31,-6.39,178.36,0.0,0.0,-0.001
25.800000000000097,,,,,,,,ID:100-1,6.31,-6.38,178.35,0.0,0.0,-0.002
25.900000000000098,,,,,,,,ID:100-1,6.31,-6.38,178.35,0.0,0.0,0.0
26.0000000000001,,,,,,,,ID:100-1,6.30,-6.38,178.34,0.0,0.0,0.0
26.1000000000001,,,,,,,,ID:100-1,6.28,-6.39,178.34,0.0,0.0,0.0
26.200000000000102,,,,,,,,ID:100-1,6.25,-6.40,178.35,-0.001,0.0,0.001
26.300000000000104,,,,,,,,ID:100-1,6.21,-6.42,178.36,0.0,0.0,0.0
26.400000000000105,,,,,,,,ID:100-1,6.18,-6.43,178.37,0.0,0.0,0.0
26.500000000000107,,,,,,,,ID:100-1,6.15,-6.43,178.37,0.0,0.0,-0.001
26.600000000000108,,,,,,,,ID:100-1,6.14,-6.43,178.37,0.0,-0.001,-0.001
26.70000000000011,,,,,,,,ID:100-1,6.14,-6.43,178.38,0.0,-0.001,-0.002
26.80000000000011,,,,,,,,ID:100-1,6.13,-6.42,178.38,0.001,-0.002,-0.003
26.900000000000112,,,,,,,,ID:100-1,6.14,-6.41,178.37,0.001,-0.002,-0.004
27.000000000000114,,,,,,,,ID:100-1,6.14,-6.40,178.37,0.002,-0.002,-0.004
27.100000000000115,,,,,,,,ID:100-1,6.13,-6.40,178.36,0.002,-0.002,-0.003
27.200000000000117,,,,,,,,ID:100-1,6.09,-6.41,178.37,0.0,0.0,0.0
27.300000000000118,,,,,,,,ID:100-1,6.06,-6.41,178.37,0.0,0.0,0.0
27.40000000000012,,,,,,,,ID:100-1,6.04,-6.41,178.38,0.0,0.0,0.0
27.50000000000012,,,,,,,,ID:100-1,6.03,-6.40,178.38,0.0,0.0,-0.001
27.600000000000122,,,,,,,,ID:100-1,6.03,-6.39,178.38,0.0,0.0,0.0
27.700000000000124,,,,,,,,ID:100-1,6.03,-6.39,178.39,0.0,0.0,0.0
27.800000000000125,,,,,,,,ID:100-1,6.02,-6.38,178.39,0.0,0.0,0.0
27.900000000000126,,,,,,,,ID:100-1,6.02,-6.37,178.40,0.0,0.0,0.0
28.000000000000128,,,,,,,,ID:100-1,6.03,-6.36,178.40,0.0,0.0,-0.001
28.10000000000013,,,,,,,,ID:100-1,6.04,-6.35,178.40,0.0,0.0,0.0
28.20000000000013,,,,,,,,ID:100-1,6.05,-6.34,178.40,0.0,0.0,0.0
28.300000000000132,,,,,,,,ID:100-1,6.05,-6.33,178.40,0.0,0.0,0.0
28.400000000000134,,,,,,,,ID:100-1,6.04,-6.32,178.40,0.0,0.0,0.0
28.500000000000135,,,,,,,,ID:100-1,6.03,-6.31,178.40,0.0,0.0,0.0
28.600000000000136,,,,,,,,ID:100-1,6.01,-6.31,178.40,0.0,0.0,0.0
28.700000000000138,,,,,,,,ID:100-1,6.00,-6.30,178.40,0.0,0.0,0.0
28.80000000000014,,,,,,,,ID:100-1,5.99,-6.30,178.41,0.0,0.0,0.0
28.90000000000014,,,,,,,,ID:100-1,5.99,-6.30,178.41,0.0,0.0,0.0
29.000000000000142,,,,,,,,ID:100-1,5.99,-6.29,178.41,0.0,0.0,0.0
29.100000000000144,,,,,,,,ID:100-1,5.99,-6.29,178.41,0.0,0.0,0.0
29.200000000000145,,,,,,,,ID:100-1,6.01,-6.28,178.41,0.0,0.0,0.0
29.300000000000146,,,,,,,,ID:100-1,6.02,-6.27,178.41,0.0,0.0,0.0
29.400000000000148,,,,,,,,ID:100-1,6.04,-6.26,178.40,0.0,0.0,0.0
29.50000000000015,,,,,,,,ID:100-1,6.06,-6.25,178.40,0.0,0.0,0.0
29.60000000000015,,,,,,,,ID:100-1,6.06,-6.24,178.39,0.0,0.0,0.0
29.700000000000152,,,,,,,,ID:100-1,6.07,-6.23,178.38,0.0,0.0,0.0
29.800000000000153,,,,,,,,ID:100-1,6.06,-6.22,178.37,0.0,0.0,0.0
29.900000000000155,,,,,,,,ID:100-1,6.06,-6.22,178.37,-0.001,0.001,0.0
30.000000000000156,,,,,,,,ID:100-1,6.05,-6.21,178.37,-0.001,0.001,0.0
30.100000000000158,,,,,,,,ID:100-1,6.05,-6.20,178.37,-0.002,0.001,0.0
30.20000000000016,,,,,,,,ID:100-1,6.05,-6.20,178.37,-0.003,0.002,0.0
30.30000000000016,,,,,,,,ID:100-1,6.04,-6.20,178.37,0.0,0.0,0.0
30.400000000000162,,,,,,,,ID:100-1,6.04,-6.20,178.37,0.0,0.0,0.0
30.500000000000163,,,,,,,,ID:100-1,6.04,-6.20,178.37,0.0,0.0,0.0
30.600000000000165,,,,,,,,ID:100-1,6.03,-6.21,178.37,0.0,0.0,0.0
30.700000000000166,,,,,,,,ID:100-1,6.02,-6.21,178.37,0.0,0.0,0.0
30.800000000000168,,,,,,,,ID:100-1,6.01,-6.22,178.37,0.0,0.0,0.0
30.90000000000017,,,,,,,,ID:100-1,6.00,-6.23,178.37,0.0,0.0,0.0
31.00000000000017,,,,,,,,ID:100-1,5.99,-6.24,178.38,-0.001,0.0,0.0
31.100000000000172,,,,,,,,ID:100-1,5.98,-6.24,178.38,-0.002,0.0,0.0
31.200000000000173,,,,,,,,ID:100-1,5.97,-6.24,178.38,-0.002,0.001,0.001
31.300000000000175,,,,,,,,ID:100-1,5.96,-6.24,178.39,-0.003,0.001,0.001
31.400000000000176,,,,,,,,ID:100-1,5.94,-6.24,178.39,-0.003,0.001,0.002
31.500000000000178,,,,,,,,ID:100-1,5.93,-6.24,178.40,-0.004,0.001,0.002
31.60000000000018,,,,,,,,ID:100-1,5.92,-6.24,178.40,-0.004,0.002,0.003
31.70000000000018,,,,,,,,ID:100-1,5.92,-6.23,178.41,-0.004,0.002,0.003
31.800000000000182,,,,,,,,ID:100-1,5.91,-6.23,178.41,0.0,0.0,0.0
31.900000000000183,,,,,,,,ID:100-1,5.91,-6.22,178.42,0.0,0.0,0.0
32.000000000000185,,,,,,,,ID:100-1,5.91,-6.21,178.42,0.0,0.0,0.0
32.100000000000186,,,,,,,,ID:100-1,5.91,-6.20,178.42,0.0,0.0,0.0
32.20000000000019,,,,,,,,ID:100-1,5.92,-6.18,178.42,0.0,0.0,0.0
32.30000000000019,,,,,,,,ID:100-1,5.93,-6.16,178.41,0.0,0.0,0.0
32.40000000000019,,,,,,,,ID:100-1,5.95,-6.14,178.41,0.0,0.0,0.001
32.50000000000019,,,,,,,,ID:100-1,5.96,-6.11,178.41,-0.001,0.0,0.001
32.60000000000019,,,,,,,,ID:100-1,5.97,-6.08,178.40,-0.002,0.0,0.002
32.700000000000195,,,,,,,,ID:100-1,5.99,-6.04,178.40,-0.003,0.001,0.003
32.800000000000196,,,,,,,,ID:100-1,6.00,-6.00,178.40,-0.003,0.001,0.003
32.9000000000002,,,,,,,,ID:100-1,6.01,-5.96,178.39,-0.004,0.001,0.004
33.0000000000002,,,,,,,,ID:100-1,6.02,-5.91,178.39,-0.004,0.002,0.004
33.1000000000002,,,,,,,,ID:100-1,6.04,-5.86,178.38,-0.005,0.003,0.004
33.2000000000002,,,,,,,,ID:100-1,6.06,-5.82,178.37,-0.005,0.004,0.004
33.3000000000002,,,,,,,,ID:100-1,6.08,-5.77,178.36,-0.006,0.004,0.004
33.400000000000205,,,,,,,,ID:100-1,6.08,-5.73,178.35,0.0,0.0,0.0
33.500000000000206,,,,,,,,ID:100-1,6.09,-5.69,178.33,0.0,0.0,0.0
33.60000000000021,,,,,,,,ID:100-1,6.10,-5.65,178.32,0.0,0.001,0.0
33.70000000000021,,,,,,,,ID:100-1,6.12,-5.61,178.30,0.0,0.001,0.0
33.80000000000021,,,,,,,,ID:100-1,6.14,-5.57,178.28,0.0,0.0,0.0
33.90000000000021,,,,,,,,ID:100-1,6.15,-5.54,178.27,0.0,0.0,0.0
34.00000000000021,,,,,,,,ID:100-1,6.17,-5.51,178.26,0.0,0.0,0.0
34.100000000000215,,,,,,,,ID:100-1,6.19,-5.48,178.25,0.0,-0.002,-0.001
34.200000000000216,,,,,,,,ID:100-1,6.20,-5.46,178.24,0.001,-0.003,-0.001
34.30000000000022,,,,,,,,ID:100-1,6.21,-5.43,178.23,0.002,-0.004,-0.002
34.40000000000022,,,,,,,,ID:100-1,6.21,-5.40,178.22,0.002,-0.004,-0.002
34.50000000000022,,,,,,,,ID:100-1,6.22,-5.37,178.20,0.003,-0.005,-0.003
34.60000000000022,,,,,,,,ID:100-1,6.22,-5.33,178.17,0.003,-0.005,-0.003
34.70000000000022,,,,,,,,ID:100-1,6.22,-5.29,178.15,0.004,-0.006,-0.003
34.800000000000225,,,,,,,,ID:100-1,6.21,-5.25,178.13,0.004,-0.006,-0.003
34.900000000000226,,,,,,,,ID:100-1,6.21,-5.21,178.11,0.005,-0.007,-0.003
35.00000000000023,,,,,,,,ID:100-1,6.20,-5.16,178.10,0.006,-0.007,-0.004
35.10000000000023,,,,,,,,ID:100-1,6.20,-5.12,178.09,0.006,-0.008,-0.004
35.20000000000023,,,,,,,,ID:100-1,6.20,-5.08,178.09,0.007,-0.008,-0.004
35.30000000000023,,,,,,,,ID:100-1,6.20,-5.05,178.08,0.007,-0.009,-0.004
35.40000000000023,,,,,,,,ID:100-1,6.20,-5.01,178.07,0.008,-0.009,-0.005
35.500000000000234,,,,,,,,ID:100-1,6.20,-4.98,178.07,0.008,-0.009,-0.005
35.600000000000236,,,,,,,,ID:100-1,6.20,-4.95,178.06,0.009,-0.01,-0.005
35.70000000000024,,,,,,,,ID:100-1,6.20,-4.93,178.05,0.009,-0.01,-0.006
35.80000000000024,,,,,,,,ID:100-1,6.20,-4.90,178.04,0.01,-0.01,-0.006
35.90000000000024,,,,,,,,ID:100-1,6.19,-4.88,178.04,0.0,0.0,0.0
36.00000000000024,,,,,,,,ID:100-1,6.19,-4.86,178.03,0.0,0.0,0.0
36.10000000000024,,,,,,,,ID:100-1,6.19,-4.85,178.02,0.0,0.0,0.0
36.200000000000244,,,,,,,,ID:100-1,6.19,-4.83,178.01,0.0,0.0,0.0
36.300000000000246,,,,,,,,ID:100-1,6.18,-4.81,178.01,0.0,0.0,0.0
36.40000000000025,,,,,,,,ID:100-1,6.18,-4.79,178.01,0.0,0.0,0.0
36.50000000000025,,,,,,,,ID:100-1,6.18,-4.76,178.01,0.0,0.0,0.0
36.60000000000025,,,,,,,,ID:100-1,6.17,-4.74,178.00,0.0,0.0,0.0
36.70000000000025,,,,,,,,ID:100-1,6.17,-4.70,178.00,0.0,0.0,0.0
36.80000000000025,,,,,,,,ID:100-1,6.16,-4.67,178.00,0.0,0.0,0.0
36.900000000000254,,,,,,,,ID:100-1,6.16,-4.63,177.99,0.0,0.0,0.0
37.000000000000256,,,,,,,,ID:100-1,6.16,-4.59,177.97,0.0,0.0,0.0
37.10000000000026,,,,,,,,ID:100-1,6.16,-4.54,177.96,0.0,0.0,0.0
37.20000000000026,,,,,,,,ID:100-1,6.16,-4.49,177.94,0.0,0.0,0.0
37.30000000000026,,,,,,,,ID:100-1,6.16,-4.43,177.92,0.0,0.0,0.0
37.40000000000026,,,,,,,,ID:100-1,6.16,-4.37,177.90,0.0,0.0,0.0
37.50000000000026,,,,,,,,ID:100-1,6.17,-4.31,177.89,0.0,0.0,0.0
37.600000000000264,,,,,,,,ID:100-1,6.18,-4.25,177.86,0.0,0.0,0.0
37.700000000000266,,,,,,,,ID:100-1,6.19,-4.18,177.84,0.0,0.0,0.0
37.80000000000027,,,,,,,,ID:100-1,6.21,-4.11,177.81,0.0,0.0,0.001
37.90000000000027,,,,,,,,ID:100-1,6.23,-4.02,177.78,0.0,0.0,0.002
38.00000000000027,,,,,,,,ID:100-1,6.25,-3.94,177.74,0.0,0.0,0.003
38.10000000000027,,,,,,,,ID:100-1,6.27,-3.84,177.70,0.001,0.0,0.004
38.20000000000027,,,,,,,,ID:100-1,6.29,-3.74,177.65,0.001,0.0,0.005
38.300000000000274,,,,,,,,ID:100-1,6.32,-3.63,177.60,0.001,0.0,0.005
38.400000000000276,,,,,,,,ID:100-1,6.36,-3.51,177.55,0.002,0.0,0.006
38.50000000000028,,,,,,,,ID:100-1,6.41,-3.39,177.49,0.002,0.0,0.006
38.60000000000028,,,,,,,,ID:100-1,6.47,-3.25,177.42,0.0,0.0,0.0
38.70000000000028,,,,,,,,ID:100-1,6.53,-3.11,177.35,0.0,0.0,0.0
38.80000000000028,,,,,,,,ID:100-1,6.62,-2.96,177.26,0.0,0.0,0.0
38.90000000000028,,,,,,,,ID:100-1,6.72,-2.80,177.17,0.0,0.0,0.0
39.000000000000284,,,,,,,,ID:100-1,6.81,-2.63,177.08,0.0,0.0,0.0
39.100000000000286,,,,,,,,ID:100-1,6.90,-2.48,176.99,0.0,0.0,0.0
39.20000000000029,,,,,,,,ID:100-1,6.98,-2.33,176.90,0.0,0.0,0.0
39.30000000000029,,,,,,,,ID:100-1,7.08,-2.18,176.80,0.0,0.001,0.0
39.40000000000029,,,,,,,,ID:100-1,7.18,-2.03,176.71,0.0,0.001,0.0
39.50000000000029,,,,,,,,ID:100-1,7.28,-1.88,176.61,0.0,0.002,0.0
39.60000000000029,,,,,,,,ID:100-1,7.38,-1.74,176.51,-0.001,0.002,0.0
39.700000000000294,,,,,,,,ID:100-1,7.47,-1.60,176.42,-0.001,0.003,0.0
39.800000000000296,,,,,,,,ID:100-1,7.54,-1.47,176.32,-0.002,0.004,0.0
39.9000000000003,,,,,,,,ID:100-1,7.61,-1.35,176.24,-0.003,0.004,0.0
40.0000000000003,,,,,,,,ID:100-1,7.67,-1.24,176.15,-0.004,0.005,0.0
40.1000000000003,,,,,,,,ID:100-1,7.73,-1.14,176.07,-0.005,0.006,0.0
40.2000000000003,,,,,,,,ID:100-1,7.77,-1.04,176.00,-0.007,0.006,0.0
40.3000000000003,,,,,,,,ID:100-1,7.81,-0.95,175.93,-0.008,0.007,0.0
40.400000000000304,,,,,,,,ID:100-1,7.84,-0.87,175.87,-0.009,0.007,0.0
40.500000000000306,,,,,,,,ID:100-1,7.87,-0.79,175.82,-0.01,0.008,0.0
40.60000000000031,,,,,,,,ID:100-1,7.89,-0.72,175.77,-0.011,0.008,-0.001
40.70000000000031,,,,,,,,ID:100-1,7.91,-0.65,175.72,-0.012,0.009,-0.002
40.80000000000031,,,,,,,,ID:100-1,7.94,-0.58,175.68,-0.013,0.009,-0.003
40.90000000000031,,,,,,,,ID:100-1,7.96,-0.52,175.64,-0.013,0.009,-0.005
41.00000000000031,,,,,,,,ID:100-1,7.98,-0.47,175.61,-0.014,0.01,-0.006
41.100000000000314,,,,,,,,ID:100-1,7.99,-0.42,175.57,-0.014,0.01,-0.007
41.200000000000315,,,,,,,,ID:100-1,8.01,-0.37,175.54,-0.014,0.01,-0.009
41.30000000000032,,,,,,,,ID:100-1,8.03,-0.33,175.51,-0.015,0.01,-0.01
41.40000000000032,,,,,,,,ID:100-1,8.04,-0.28,175.48,-0.015,0.01,-0.011
41.50000000000032,,,,,,,,ID:100-1,8.05,-0.25,175.46,-0.016,0.01,-0.012
41.60000000000032,,,,,,,,ID:100-1,8.06,-0.21,175.44,-0.016,0.01,-0.014
41.70000000000032,,,,,,,,ID:100-1,8.07,-0.18,175.42,-0.016,0.01,-0.015
41.800000000000324,,,,,,,,ID:100-1,8.08,-0.16,175.41,-0.016,0.009,-0.016
41.900000000000325,,,,,,,,ID:100-1,8.08,-0.13,175.39,-0.017,0.009,-0.017
42.00000000000033,,,,,,,,ID:100-1,8.09,-0.11,175.38,-0.017,0.009,-0.018
42.10000000000033,,,,,,,,ID:100-1,8.09,-0.09,175.37,-0.017,0.009,-0.019
42.20000000000033,,,,,,,,ID:100-1,8.10,-0.07,175.35,-0.017,0.008,-0.019
42.30000000000033,,,,,,,,ID:100-1,8.10,-0.05,175.34,-0.017,0.008,-0.02
42.40000000000033,,,,,,,,ID:100-1,8.11,-0.03,175.33,0.0,0.0,0.0
42.500000000000334,,,,,,,,ID:100-1,8.12,-0.01,175.32,0.0,0.0,0.0
42.600000000000335,,,,,,,,ID:100-1,8.13,0.01,175.30,0.0,0.0,0.0
42.70000000000034,,,,,,,,ID:100-1,8.14,0.04,175.29,0.0,0.0,0.0
42.80000000000034,,,,,,,,ID:100-1,8.15,0.07,175.27,0.0,0.0,0.0
42.90000000000034,,,,,,,,ID:100-1,8.16,0.11,175.26,0.0,0.0,0.0
43.00000000000034,,,,,,,,ID:100-1,8.18,0.14,175.24,0.0,0.0,0.0
43.10000000000034,,,,,,,,ID:100-1,8.19,0.19,175.23,0.0,0.0,0.0
43.200000000000344,,,,,,,,ID:100-1,8.20,0.23,175.21,0.0,0.0,0.0
43.300000000000345,,,,,,,,ID:100-1,8.21,0.28,175.20,0.0,0.0,0.0
43.40000000000035,,,,,,,,ID:100-1,8.21,0.33,175.18,0.0,0.0,0.0
43.50000000000035,,,,,,,,ID:100-1,8.22,0.39,175.17,0.0,0.0,0.0
43.60000000000035,,,,,,,,ID:100-1,8.22,0.44,175.15,0.0,0.0,0.0
43.70000000000035,,,,,,,,ID:100-1,8.23,0.50,175.14,0.0,0.0,0.0
43.80000000000035,,,,,,,,ID:100-1,8.23,0.56,175.13,0.0,0.0,0.0
43.900000000000354,,,,,,,,ID:100-1,8.24,0.61,175.11,0.0,0.0,0.0
44.000000000000355,,,,,,,,ID:100-1,8.24,0.67,175.10,0.0,0.0,0.0
44.10000000000036,,,,,,,,ID:100-1,8.24,0.72,175.08,0.0,0.0,0.0
44.20000000000036,,,,,,,,ID:100-1,8.25,0.77,175.07,0.0,0.0,0.0
44.30000000000036,,,,,,,,ID:100-1,8.25,0.83,175.05,0.0,0.0,0.0
44.40000000000036,,,,,,,,ID:100-1,8.25,0.88,175.04,0.0,0.0,0.0
44.50000000000036,,,,,,,,ID:100-1,8.26,0.93,175.03,0.0,0.0,0.0
44.600000000000364,,,,,,,,ID:100-1,8.26,0.98,175.02,0.0,0.0,0.0
44.700000000000365,,,,,,,,ID:100-1,8.26,1.02,175.00,0.0,0.0,0.0
44.80000000000037,,,,,,,,ID:100-1,8.26,1.07,174.99,0.0,0.0,0.0
44.90000000000037,,,,,,,,ID:100-1,8.26,1.11,174.98,0.0,0.0,0.0
45.00000000000037,,,,,,,,ID:100-1,8.26,1.15,174.97,0.0,0.0,0.0
45.10000000000037,,,,,,,,ID:100-1,8.26,1.19,174.95,0.0,0.0,0.0
45.20000000000037,,,,,,,,ID:100-1,8.27,1.22,174.94,0.0,0.0,0.0
45.300000000000374,,,,,,,,ID:100-1,8.27,1.26,174.93,0.0,0.0,0.0
45.400000000000375,,,,,,,,ID:100-1,8.27,1.29,174.92,0.0,0.0,0.0
45.50000000000038,,,,,,,,ID:100-1,8.27,1.32,174.91,0.0,0.0,0.0
45.60000000000038,,,,,,,,ID:100-1,8.27,1.35,174.90,0.0,0.0,0.0
45.70000000000038,,,,,,,,ID:100-1,8.27,1.38,174.89,0.0,0.0,0.0
45.80000000000038,,,,,,,,ID:100-1,8.27,1.41,174.87,0.0,0.0,0.0
45.90000000000038,,,,,,,,ID:100-1,8.27,1.44,174.86,-0.001,0.0,0.0
46.000000000000384,,,,,,,,ID:100-1,8.27,1.47,174.84,-0.002,0.001,0.0
46.100000000000385,,,,,,,,ID:100-1,8.28,1.51,174.83,-0.002,0.001,0.001
46.20000000000039,,,,,,,,ID:100-1,8.28,1.54,174.81,-0.003,0.002,0.001
46.30000000000039,,,,,,,,ID:100-1,8.29,1.58,174.79,-0.004,0.002,0.002
46.40000000000039,,,,,,,,ID:100-1,8.29,1.62,174.77,-0.004,0.002,0.002
46.50000000000039,,,,,,,,ID:100-1,8.29,1.67,174.75,-0.005,0.003,0.003
46.60000000000039,,,,,,,,ID:100-1,8.30,1.71,174.73,-0.005,0.003,0.003
46.700000000000394,,,,,,,,ID:100-1,8.30,1.76,174.71,-0.006,0.004,0.004
46.800000000000395,,,,,,,,ID:100-1,8.30,1.80,174.69,-0.006,0.004,0.004
46.9000000000004,,,,,,,,ID:100-1,8.31,1.85,174.67,-0.007,0.005,0.005
47.0000000000004,,,,,,,,ID:100-1,8.31,1.90,174.65,-0.007,0.005,0.005
47.1000000000004,,,,,,,,ID:100-1,8.32,1.95,174.63,-0.008,0.005,0.005
47.2000000000004,,,,,,,,ID:100-1,8.32,1.99,174.61,-0.008,0.006,0.006
47.3000000000004,,,,,,,,ID:100-1,8.33,2.04,174.60,-0.009,0.006,0.006
47.400000000000404,,,,,,,,ID:100-1,8.33,2.09,174.58,0.0,0.0,0.0
47.500000000000405,,,,,,,,ID:100-1,8.33,2.14,174.56,0.0,0.0,0.0
47.600000000000406,,,,,,,,ID:100-1,8.34,2.18,174.54,0.0,0.0,0.0
47.70000000000041,,,,,,,,ID:100-1,8.34,2.23,174.53,-0.001,0.0,0.0
47.80000000000041,,,,,,,,ID:100-1,8.35,2.27,174.51,0.0,0.0,0.0
47.90000000000041,,,,,,,,ID:100-1,8.35,2.32,174.49,0.0,0.0,0.0
48.00000000000041,,,,,,,,ID:100-1,8.35,2.36,174.48,0.0,0.0,0.0
48.10000000000041,,,,,,,,ID:100-1,8.36,2.41,174.46,0.0,0.0,0.0
48.200000000000415,,,,,,,,ID:100-1,8.36,2.45,174.45,0.0,0.0,0.0
48.300000000000416,,,,,,,,ID:100-1,8.36,2.49,174.44,0.0,0.0,0.0
48.40000000000042,,,,,,,,ID:100-1,8.36,2.53,174.43,0.0,0.0,-0.001
48.50000000000042,,,,,,,,ID:100-1,8.37,2.57,174.41,0.0,0.0,-0.001
48.60000000000042,,,,,,,,ID:100-1,8.37,2.60,174.40,0.0,0.0,-0.002
48.70000000000042,,,,,,,,ID:100-1,8.38,2.64,174.39,0.0,0.0,-0.002
48.80000000000042,,,,,,,,ID:100-1,8.38,2.67,174.38,0.0,-0.001,-0.003
48.900000000000425,,,,,,,,ID:100-1,8.39,2.70,174.36,0.0,-0.001,-0.004
49.000000000000426,,,,,,,,ID:100-1,8.39,2.74,174.35,0.0,-0.001,-0.004
49.10000000000043,,,,,,,,ID:100-1,8.40,2.77,174.34,0.0,0.0,0.0
49.20000000000043,,,,,,,,ID:100-1,8.40,2.80,174.33,0.0,0.0,0.0
49.30000000000043,,,,,,,,ID:100-1,8.41,2.83,174.31,0.0,0.0,0.0
49.40000000000043,,,,,,,,ID:100-1,8.41,2.87,174.30,0.0,0.0,0.0
49.50000000000043,,,,,,,,ID:100-1,8.41,2.89,174.29,0.0,0.0,0.0
49.600000000000435,,,,,,,,ID:100-1,8.42,2.92,174.27,0.0,0.0,0.0
49.700000000000436,,,,,,,,ID:100-1,8.42,2.95,174.26,0.0,0.0,0.0
49.80000000000044,,,,,,,,ID:100-1,8.43,2.98,174.25,0.0,0.0,0.0
49.90000000000044,,,,,,,,ID:100-1,8.43,3.01,174.24,0.0,0.0,0.0
50.00000000000044,,,,,,,,ID:100-1,8.43,3.05,174.23,0.0,-0.001,0.0
50.10000000000044,,,,,,,,ID:100-1,8.44,3.08,174.22,0.001,-0.001,0.0
50.20000000000044,,,,,,,,ID:100-1,8.44,3.11,174.21,0.001,-0.002,0.0
50.300000000000445,,,,,,,,ID:100-1,8.44,3.15,174.20,0.001,-0.002,0.0
50.400000000000446,,,,,,,,ID:100-1,8.44,3.18,174.19,0.002,-0.003,0.0
50.50000000000045,,,,,,,,ID:100-1,8.44,3.22,174.18,0.002,-0.003,0.0
50.60000000000045,,,,,,,,ID:100-1,8.43,3.25,174.18,0.003,-0.004,0.0
50.70000000000045,,,,,,,,ID:100-1,8.43,3.29,174.17,0.003,-0.004,0.0
50.80000000000045,,,,,,,,ID:100-1,8.43,3.32,174.16,0.003,-0.004,0.0
50.90000000000045,,,,,,,,ID:100-1,8.42,3.35,174.16,0.0,0.0,0.0
51.000000000000455,,,,,,,,ID:100-1,8.42,3.38,174.15,0.0,0.0,0.0
51.100000000000456,,,,,,,,ID:100-1,8.42,3.42,174.15,0.0,0.0,0.0
51.20000000000046,,,,,,,,ID:100-1,8.41,3.45,174.15,0.0,0.0,0.0
51.30000000000046,,,,,,,,ID:100-1,8.41,3.48,174.16,0.0,0.0,0.0
51.40000000000046,,,,,,,,ID:100-1,8.40,3.52,174.16,0.0,0.0,0.0
51.50000000000046,,,,,,,,ID:100-1,8.39,3.55,174.17,0.0,0.0,0.0
51.60000000000046,,,,,,,,ID:100-1,8.38,3.58,174.18,0.0,0.0,-0.001
51.700000000000465,,,,,,,,ID:100-1,8.37,3.61,174.20,0.0,0.0,-0.001
51.800000000000466,,,,,,,,ID:100-1,8.36,3.63,174.21,0.0,0.001,-0.002
51.90000000000047,,,,,,,,ID:100-1,8.35,3.65,174.23,0.0,0.001,-0.003
52.00000000000047,,,,,,,,ID:100-1,8.34,3.67,174.25,0.0,0.001,-0.004
52.10000000000047,,,,,,,,ID:100-1,8.33,3.69,174.26,0.0,0.001,-0.004
52.20000000000047,,,,,,,,ID:100-1,8.32,3.71,174.27,0.0,0.0,0.0
52.30000000000047,,,,,,,,ID:100-1,8.31,3.73,174.28,0.0,0.0,0.0
52.400000000000475,,,,,,,,ID:100-1,8.30,3.75,174.29,0.0,0.0,0.0
52.500000000000476,,,,,,,,ID:100-1,8.29,3.77,174.30,0.0,0.0,0.0
52.60000000000048,,,,,,,,ID:100-1,8.28,3.79,174.30,0.0,0.0,0.0
52.70000000000048,,,,,,,,ID:100-1,8.28,3.81,174.31,0.0,0.0,0.0
52.80000000000048,,,,,,,,ID:100-1,8.27,3.83,174.31,0.0,0.0,0.0
52.90000000000048,,,,,,,,ID:100-1,8.26,3.85,174.32,0.0,0.0,0.0
53.00000000000048,,,,,,,,ID:100-1,8.26,3.88,174.32,0.0,0.0,0.0
53.100000000000485,,,,,,,,ID:100-1,8.26,3.90,174.32,0.0,0.0,0.0
53.200000000000486,,,,,,,,ID:100-1,8.25,3.92,174.32,0.0,0.0,0.0
53.30000000000049,,,,,,,,ID:100-1,8.25,3.94,174.32,0.0,0.001,0.0
53.40000000000049,,,,,,,,ID:100-1,8.25,3.97,174.32,-0.001,0.002,0.001
53.50000000000049,,,,,,,,ID:100-1,8.25,3.99,174.32,-0.001,0.002,0.001
53.60000000000049,,,,,,,,ID:100-1,8.25,4.01,174.31,-0.002,0.003,0.002
53.70000000000049,,,,,,,,ID:100-1,8.25,4.04,174.31,-0.003,0.003,0.002
53.800000000000495,,,,,,,,ID:100-1,8.25,4.06,174.30,-0.003,0.004,0.002
53.900000000000496,,,,,,,,ID:100-1,8.24,4.08,174.29,-0.004,0.005,0.003
54.0000000000005,,,,,,,,ID:100-1,8.24,4.09,174.28,-0.005,0.005,0.003
54.1000000000005,,,,,,,,ID:100-1,8.24,4.10,174.27,-0.005,0.006,0.003
54.2000000000005,,,,,,,,ID:100-1,8.23,4.11,174.26,-0.006,0.007,0.003
54.3000000000005,,,,,,,,ID:100-1,8.23,4.12,174.25,-0.007,0.007,0.004
54.4000000000005,,,,,,,,ID:100-1,8.22,4.12,174.24,-0.007,0.007,0.004
54.500000000000504,,,,,,,,ID:100-1,8.22,4.12,174.23,-0.008,0.008,0.004
54.600000000000506,,,,,,,,ID:100-1,8.22,4.12,174.22,-0.009,0.008,0.003
54.70000000000051,,,,,,,,ID:100-1,8.22,4.12,174.21,-0.009,0.008,0.003
54.80000000000051,,,,,,,,ID:100-1,8.21,4.12,174.19,-0.01,0.009,0.003
54.90000000000051,,,,,,,,ID:100-1,8.21,4.12,174.18,0.0,0.0,0.0
55.00000000000051,,,,,,,,ID:100-1,8.20,4.11,174.17,0.0,0.0,0.0
55.10000000000051,,,,,,,,ID:100-1,8.20,4.11,174.15,0.0,0.0,0.0
55.200000000000514,,,,,,,,ID:100-1,8.19,4.11,174.14,0.0,0.0,0.0
55.300000000000516,,,,,,,,ID:100-1,8.19,4.11,174.12,0.0,0.0,0.0
55.40000000000052,,,,,,,,ID:100-1,8.18,4.11,174.11,0.0,0.0,0.0
55.50000000000052,,,,,,,,ID:100-1,8.18,4.12,174.09,0.0,0.0,0.0
55.60000000000052,,,,,,,,ID:100-1,8.17,4.12,174.08,0.0,0.0,-0.001
55.70000000000052,,,,,,,,ID:100-1,8.17,4.12,174.07,0.0,0.0,-0.001
55.80000000000052,,,,,,,,ID:100-1,8.17,4.13,174.05,0.0,0.0,-0.002
55.900000000000524,,,,,,,,ID:100-1,8.17,4.13,174.04,0.0,0.0,0.0
56.000000000000526,,,,,,,,ID:100-1,8.16,4.14,174.03,0.0,0.0,0.0
56.10000000000053,,,,,,,,ID:100-1,8.16,4.14,174.02,0.0,0.0,0.0
56.20000000000053,,,,,,,,ID:100-1,8.16,4.14,174.01,0.0,0.0,0.0
56.30000000000053,,,,,,,,ID:100-1,8.15,4.14,174.00,0.0,0.0,0.0
56.40000000000053,,,,,,,,ID:100-1,8.15,4.14,173.99,0.0,0.0,0.0
56.50000000000053,,,,,,,,ID:100-1,8.15,4.13,173.98,0.0,0.0,0.0
56.600000000000534,,,,,,,,ID:100-1,8.14,4.12,173.97,0.0,0.0,0.0
56.700000000000536,,,,,,,,ID:100-1,8.14,4.11,173.96,0.0,0.0,0.0
56.80000000000054,,,,,,,,ID:100-1,8.14,4.10,173.96,0.0,0.0,0.0
56.90000000000054,,,,,,,,ID:100-1,8.13,4.08,173.95,0.0,0.0,0.0
57.00000000000054,,,,,,,,ID:100-1,8.13,4.06,173.95,0.0,0.0,0.0
57.10000000000054,,,,,,,,ID:100-1,8.13,4.04,173.95,0.0,0.0,0.0
57.20000000000054,,,,,,,,ID:100-1,8.12,4.01,173.94,0.0,0.0,0.0
57.300000000000544,,,,,,,,ID:100-1,8.12,3.98,173.94,0.001,-0.001,0.0
57.400000000000546,,,,,,,,ID:100-1,8.11,3.96,173.94,0.001,-0.001,0.001
57.50000000000055,,,,,,,,ID:100-1,8.10,3.93,173.94,0.002,-0.002,0.001
57.60000000000055,,,,,,,,ID:100-1,8.10,3.90,173.94,0.003,-0.002,0.001
57.70000000000055,,,,,,,,ID:100-1,8.09,3.87,173.94,0.003,-0.002,0.002
57.80000000000055,,,,,,,,ID:100-1,8.08,3.84,173.94,0.0,0.0,0.0
57.90000000000055,,,,,,,,ID:100-1,8.07,3.81,173.94,0.0,0.0,0.0
58.000000000000554,,,,,,,,ID:100-1,8.07,3.78,173.94,0.0,0.0,0.0
58.100000000000556,,,,,,,,ID:100-1,8.06,3.75,173.95,0.0,0.0,0.0
58.20000000000056,,,,,,,,ID:100-1,8.05,3.72,173.96,0.0,0.0,0.0
58.30000000000056,,,,,,,,ID:100-1,8.03,3.69,173.96,0.0,0.0,0.0
58.40000000000056,,,,,,,,ID:100-1,8.02,3.66,173.97,0.0,0.0,0.0
58.50000000000056,,,,,,,,ID:100-1,8.01,3.63,173.97,0.0,0.0,0.0
58.60000000000056,,,,,,,,ID:100-1,7.99,3.60,173.98,0.0,0.0,0.0
58.700000000000564,,,,,,,,ID:100-1,7.98,3.57,173.99,0.0,0.0,0.0
58.800000000000566,,,,,,,,ID:100-1,7.96,3.53,173.99,0.0,0.0,-0.001
58.90000000000057,,,,,,,,ID:100-1,7.95,3.49,174.00,0.0,0.0,-0.001
59.00000000000057,,,,,,,,ID:100-1,7.93,3.45,174.01,0.0,0.0,-0.002
59.10000000000057,,,,,,,,ID:100-1,7.92,3.40,174.01,0.0,0.0,-0.003
59.20000000000057,,,,,,,,ID:100-1,7.90,3.35,174.02,0.0,0.0,-0.004
59.30000000000057,,,,,,,,ID:100-1,7.88,3.29,174.03,0.0,0.0,-0.005
59.400000000000574,,,,,,,,ID:100-1,7.87,3.23,174.04,0.0,0.0,-0.005
59.500000000000576,,,,,,,,ID:100-1,7.85,3.17,174.05,0.0,0.0,-0.006
59.60000000000058,,,,,,,,ID:100-1,7.83,3.11,174.05,0.0,0.0,-0.007
59.70000000000058,,,,,,,,ID:100-1,7.81,3.05,174.06,0.0,0.0,-0.008
59.80000000000058,,,,,,,,ID:100-1,7.79,2.98,174.07,0.0,0.0,-0.009
59.90000000000058,,,,,,,,ID:100-1,7.77,2.91,174.07,0.0,0.001,-0.009
60.00000000000058,,,,,,,,ID:100-1,7.76,2.83,174.08,-0.001,0.001,-0.01
60.100000000000584,,,,,,,,ID:100-1,7.74,2.75,174.09,-0.001,0.001,-0.011
60.200000000000585,,,,,,,,ID:100-1,7.72,2.67,174.10,-0.002,0.002,-0.011
60.30000000000059,,,,,,,,ID:100-1,7.71,2.58,174.11,0.0,0.0,0.0
60.40000000000059,,,,,,,,ID:100-1,7.69,2.50,174.12,0.0,0.0,0.0
60.50000000000059,,,,,,,,ID:100-1,7.68,2.41,174.12,0.0,0.0,0.0
60.60000000000059,,,,,,,,ID:100-1,7.67,2.33,174.13,0.0,0.0,0.0
60.70000000000059,,,,,,,,ID:100-1,7.65,2.25,174.13,0.0,0.0,0.001
60.800000000000594,,,,,,,,ID:100-1,7.64,2.17,174.14,0.0,0.0,0.001
60.900000000000595,,,,,,,,ID:100-1,7.63,2.09,174.14,0.0,0.0,0.002
61.0000000000006,,,,,,,,ID:100-1,7.62,2.01,174.14,0.0,0.001,0.003
61.1000000000006,,,,,,,,ID:100-1,7.61,1.94,174.14,0.0,0.001,0.003
61.2000000000006,,,,,,,,ID:100-1,7.60,1.86,174.14,0.0,0.001,0.004
61.3000000000006,,,,,,,,ID:100-1,7.60,1.78,174.14,-0.001,0.002,0.005
61.4000000000006,,,,,,,,ID:100-1,7.59,1.71,174.14,-0.001,0.002,0.005
61.500000000000604,,,,,,,,ID:100-1,7.59,1.63,174.14,-0.001,0.002,0.006
61.600000000000605,,,,,,,,ID:100-1,7.59,1.55,174.13,-0.001,0.003,0.007
61.70000000000061,,,,,,,,ID:100-1,7.58,1.47,174.13,-0.001,0.003,0.008
61.80000000000061,,,,,,,,ID:100-1,7.58,1.39,174.13,-0.001,0.003,0.008
61.90000000000061,,,,,,,,ID:100-1,7.59,1.31,174.12,-0.001,0.004,0.009
62.00000000000061,,,,,,,,ID:100-1,7.59,1.23,174.11,-0.002,0.004,0.01
62.10000000000061,,,,,,,,ID:100-1,7.59,1.15,174.11,0.0,0.0,0.0
62.200000000000614,,,,,,,,ID:100-1,7.59,1.07,174.10,0.0,0.0,0.0
62.300000000000615,,,,,,,,ID:100-1,7.60,1.00,174.09,0.0,0.0,0.0
62.40000000000062,,,,,,,,ID:100-1,7.61,0.92,174.08,0.0,0.0,0.0
62.50000000000062,,,,,,,,ID:100-1,7.62,0.84,174.07,-0.001,0.0,0.001
62.60000000000062,,,,,,,,ID:100-1,7.63,0.77,174.05,0.0,0.0,0.0
62.70000000000062,,,,,,,,ID:100-1,7.64,0.70,174.04,0.0,0.0,0.0
62.80000000000062,,,,,,,,ID:100-1,7.65,0.63,174.03,0.0,0.0,0.0
62.900000000000624,,,,,,,,ID:100-1,7.66,0.56,174.02,0.0,0.0,0.0
63.000000000000625,,,,,,,,ID:100-1,7.66,0.50,174.01,0.0,0.0,0.0
63.10000000000063,,,,,,,,ID:100-1,7.67,0.44,173.99,0.0,0.0,0.0
63.20000000000063,,,,,,,,ID:100-1,7.68,0.38,173.98,0.0,0.0,0.0
63.30000000000063,,,,,,,,ID:100-1,7.69,0.32,173.96,0.0,0.0,0.0
63.40000000000063,,,,,,,,ID:100-1,7.70,0.26,173.95,0.0,0.0,0.0
63.50000000000063,,,,,,,,ID:100-1,7.71,0.21,173.93,0.0,0.0,0.0
63.600000000000634,,,,,,,,ID:100-1,7.71,0.15,173.92,0.0,0.0,0.0
63.700000000000635,,,,,,,,ID:100-1,7.72,0.09,173.90,0.0,0.0,0.0
63.80000000000064,,,,,,,,ID:100-1,7.73,0.03,173.89,0.0,0.0,0.0
63.90000000000064,,,,,,,,ID:100-1,7.74,-0.03,173.87,0.0,-0.001,-0.001
64.00000000000064,,,,,,,,ID:100-1,7.74,-0.11,173.84,0.0,-0.001,-0.002
64.10000000000063,,,,,,,,ID:100-1,7.75,-0.20,173.82,0.0,-0.002,-0.003
64.20000000000063,,,,,,,,ID:100-1,7.76,-0.30,173.79,0.0,-0.002,-0.004
64.30000000000062,,,,,,,,ID:100-1,7.77,-0.40,173.76,0.0,-0.002,-0.005
64.40000000000062,,,,,,,,ID:100-1,7.78,-0.51,173.73,0.0,-0.003,-0.006
64.50000000000061,,,,,,,,ID:100-1,7.79,-0.63,173.70,0.0,-0.003,-0.007
64.6000000000006,,,,,,,,ID:100-1,7.79,-0.75,173.66,0.0,-0.003,-0.008
64.7000000000006,,,,,,,,ID:100-1,7.80,-0.87,173.63,0.0,-0.004,-0.009
64.8000000000006,,,,,,,,ID:100-1,7.80,-0.99,173.60,0.0,-0.004,-0.009
64.90000000000059,,,,,,,,ID:100-1,7.80,-1.12,173.57,0.0,-0.004,-0.01
65.00000000000058,,,,,,,,ID:100-1,7.80,-1.25,173.54,0.0,-0.005,-0.011
65.10000000000058,,,,,,,,ID:100-1,7.80,-1.37,173.51,0.0,-0.005,-0.011
65.20000000000057,,,,,,,,ID:100-1,7.80,-1.50,173.49,0.001,-0.006,-0.012
65.30000000000057,,,,,,,,ID:100-1,7.80,-1.62,173.46,0.001,-0.006,-0.012
65.40000000000056,,,,,,,,ID:100-1,7.80,-1.75,173.43,0.002,-0.007,-0.012
65.50000000000055,,,,,,,,ID:100-1,7.80,-1.88,173.41,0.002,-0.007,-0.012
65.60000000000055,,,,,,,,ID:100-1,7.81,-2.00,173.38,0.003,-0.008,-0.012
65.70000000000054,,,,,,,,ID:100-1,7.81,-2.12,173.36,0.004,-0.008,-0.012
65.80000000000054,,,,,,,,ID:100-1,7.82,-2.23,173.33,0.004,-0.009,-0.011
65.90000000000053,,,,,,,,ID:100-1,7.83,-2.34,173.31,0.005,-0.009,-0.01
66.00000000000053,,,,,,,,ID:100-1,7.84,-2.44,173.29,0.005,-0.01,-0.009
66.10000000000052,,,,,,,,ID:100-1,7.84,-2.54,173.28,0.005,-0.01,-0.008
66.20000000000051,,,,,,,,ID:100-1,7.85,-2.63,173.26,0.005,-0.01,-0.007
66.30000000000051,,,,,,,,ID:100-1,7.86,-2.71,173.25,0.005,-0.01,-0.005
66.4000000000005,,,,,,,,ID:100-1,7.86,-2.78,173.25,0.005,-0.01,-0.004
66.5000000000005,,,,,,,,ID:100-1,7.86,-2.85,173.24,0.005,-0.01,-0.002
66.60000000000049,,,,,,,,ID:100-1,7.87,-2.92,173.24,0.005,-0.01,-0.001
66.70000000000049,,,,,,,,ID:100-1,7.87,-2.99,173.24,0.005,-0.01,0.0
66.80000000000048,,,,,,,,ID:100-1,7.87,-3.06,173.24,0.005,-0.01,0.0
66.90000000000047,,,,,,,,ID:100-1,7.87,-3.12,173.24,0.005,-0.01,0.001
67.00000000000047,,,,,,,,ID:100-1,7.88,-3.19,173.24,0.005,-0.01,0.001
67.10000000000046,,,,,,,,ID:100-1,7.89,-3.26,173.23,0.0,0.0,0.0
67.20000000000046,,,,,,,,ID:100-1,7.89,-3.33,173.23,0.0,0.0,0.0
67.30000000000045,,,,,,,,ID:100-1,7.90,-3.41,173.22,0.0,0.0,0.0
67.40000000000045,,,,,,,,ID:100-1,7.90,-3.48,173.22,0.0,0.0,0.0
67.50000000000044,,,,,,,,ID:100-1,7.91,-3.55,173.21,0.0,0.0,0.0
67.60000000000043,,,,,,,,ID:100-1,7.91,-3.63,173.20,0.0,0.0,0.0
67.70000000000043,,,,,,,,ID:100-1,7.92,-3.71,173.19,0.0,0.0,0.0
67.80000000000042,,,,,,,,ID:100-1,7.92,-3.79,173.18,0.0,0.0,0.0
67.90000000000042,,,,,,,,ID:100-1,7.93,-3.87,173.17,0.0,0.0,0.0
68.00000000000041,,,,,,,,ID:100-1,7.94,-3.96,173.15,0.0,0.0,0.0
68.1000000000004,,,,,,,,ID:100-1,7.95,-4.05,173.14,0.0,0.0,0.0
68.2000000000004,,,,,,,,ID:100-1,7.95,-4.14,173.12,0.0,0.0,0.0
68.3000000000004,,,,,,,,ID:100-1,7.97,-4.23,173.10,0.0,0.0,0.0
68.40000000000039,,,,,,,,ID:100-1,7.98,-4.33,173.07,0.0,0.0,0.0
68.50000000000038,,,,,,,,ID:100-1,7.99,-4.43,173.05,0.0,0.0,0.0
68.60000000000038,,,,,,,,ID:100-1,8.01,-4.52,173.02,0.0,0.0,0.0
68.70000000000037,,,,,,,,ID:100-1,8.02,-4.62,172.99,0.0,0.0,0.0
68.80000000000037,,,,,,,,ID:100-1,8.04,-4.73,172.97,0.0,0.0,0.0
68.90000000000036,,,,,,,,ID:100-1,8.06,-4.83,172.94,0.0,0.0,0.0
69.00000000000036,,,,,,,,ID:100-1,8.08,-4.93,172.91,0.0,0.0,0.0
69.10000000000035,,,,,,,,ID:100-1,8.09,-5.03,172.88,0.0,0.0,0.0
69.20000000000034,,,,,,,,ID:100-1,8.11,-5.14,172.85,0.0,0.0,0.0
69.30000000000034,,,,,,,,ID:100-1,8.13,-5.26,172.81,0.0,0.0,0.0
69.40000000000033,,,,,,,,ID:100-1,8.15,-5.39,172.77,0.0,0.0,0.0
69.50000000000033,,,,,,,,ID:100-1,8.17,-5.52,172.72,0.0,0.0,0.0
69.60000000000032,,,,,,,,ID:100-1,8.19,-5.67,172.68,0.0,0.0,0.0
69.70000000000032,,,,,,,,ID:100-1,8.22,-5.81,172.63,0.0,0.0,0.0
69.80000000000031,,,,,,,,ID:100-1,8.25,-5.94,172.59,0.0,0.0,0.0
69.9000000000003,,,,,,,,ID:100-1,8.27,-6.07,172.55,-0.001,0.0,0.001
70.0000000000003,,,,,,,,ID:100-1,8.29,-6.20,172.51,-0.001,0.0,0.002
70.10000000000029,,,,,,,,ID:100-1,8.30,-6.32,172.47,0.0,0.0,0.003
70.20000000000029,,,,,,,,ID:100-1,8.32,-6.44,172.44,0.0,0.0,0.005
70.30000000000028,,,,,,,,ID:100-1,8.33,-6.56,172.41,0.0,0.0,0.006
70.40000000000028,,,,,,,,ID:100-1,8.35,-6.69,172.39,0.0,-0.001,0.007
70.50000000000027,,,,,,,,ID:100-1,8.37,-6.81,172.36,0.001,-0.001,0.008
70.60000000000026,,,,,,,,ID:100-1,8.40,-6.93,172.34,0.002,-0.001,0.009
70.70000000000026,,,,,,,,ID:100-1,8.44,-7.05,172.31,0.002,-0.001,0.01
70.80000000000025,,,,,,,,ID:100-1,8.48,-7.16,172.28,0.002,0.0,0.012
70.90000000000025,,,,,,,,ID:100-1,8.52,-7.26,172.26,0.003,0.0,0.014
71.00000000000024,,,,,,,,ID:100-1,8.56,-7.37,172.23,0.004,0.0,0.016
71.10000000000024,,,,,,,,ID:100-1,8.61,-7.46,172.21,0.004,0.0,0.019
71.20000000000023,,,,,,,,ID:100-1,8.67,-7.55,172.19,0.005,0.0,0.022
71.30000000000022,,,,,,,,ID:100-1,8.73,-7.64,172.16,0.006,0.0,0.024
71.40000000000022,,,,,,,,ID:100-1,8.80,-7.72,172.13,0.008,0.0,0.028
71.50000000000021,,,,,,,,ID:100-1,8.87,-7.80,172.10,0.009,0.0,0.031
71.60000000000021,,,,,,,,ID:100-1,8.95,-7.88,172.06,0.01,0.0,0.034
71.7000000000002,,,,,,,,ID:100-1,9.03,-7.96,172.02,0.012,0.0,0.038
71.8000000000002,,,,,,,,ID:100-1,9.11,-8.06,171.96,0.013,0.0,0.041
71.90000000000019,,,,,,,,ID:100-1,9.20,-8.17,171.90,0.014,0.0,0.043
72.00000000000018,,,,,,,,ID:100-1,9.30,-8.30,171.83,0.016,0.0,0.046
72.10000000000018,,,,,,,,ID:100-1,9.42,-8.44,171.75,0.017,0.0,0.048
72.20000000000017,,,,,,,,ID:100-1,9.55,-8.59,171.67,0.018,0.0,0.051
72.30000000000017,,,,,,,,ID:100-1,9.70,-8.76,171.59,0.019,0.0,0.053
72.40000000000016,,,,,,,,ID:100-1,9.87,-8.92,171.50,0.021,0.0,0.056
72.50000000000016,,,,,,,,ID:100-1,10.05,-9.08,171.42,0.023,-0.001,0.06
72.60000000000015,,,,,,,,ID:100-1,10.26,-9.24,171.35,0.026,-0.002,0.063
72.70000000000014,,,,,,,,ID:100-1,10.49,-9.42,171.28,0.03,-0.004,0.067
72.80000000000014,,,,,,,,ID:100-1,10.74,-9.61,171.21,0.035,-0.006,0.072
72.90000000000013,,,,,,,,ID:100-1,11.00,-9.78,171.16,0.041,-0.008,0.077
73.00000000000013,,,,,,,,ID:100-1,11.27,-9.94,171.12,0.048,-0.011,0.083
73.10000000000012,,,,,,,,ID:100-1,11.54,-10.08,171.09,0.057,-0.015,0.089
73.20000000000012,,,,,,,,ID:100-1,11.78,-10.21,171.08,0.066,-0.022,0.095
73.30000000000011,,,,,,,,ID:100-1,11.93,-10.32,171.10,0.078,-0.031,0.102
73.4000000000001,,,,,,,,ID:100-1,11.97,-10.43,171.16,0.091,-0.04,0.108
73.5000000000001,,,,,,,,ID:100-1,11.96,-10.52,171.23,0.105,-0.047,0.114
73.6000000000001,,,,,,,,ID:100-1,11.94,-10.62,171.32,0.121,-0.054,0.118
73.70000000000009,,,,,,,,ID:100-1,11.97,-10.71,171.40,0.136,-0.059,0.122
73.80000000000008,,,,,,,,ID:100-1,12.05,-10.79,171.48,0.152,-0.063,0.127
73.90000000000008,,,,,,,,ID:100-1,12.19,-10.87,171.54,0.168,-0.067,0.133
74.00000000000007,,,,,,,,ID:100-1,12.39,-10.94,171.58,0.184,-0.07,0.139
74.10000000000007,,,,,,,,ID:100-1,12.62,-11.00,171.62,0.199,-0.073,0.145
74.20000000000006,,,,,,,,ID:100-1,12.88,-11.03,171.65,0.214,-0.078,0.152
74.30000000000005,,,,,,,,ID:100-1,13.15,-11.04,171.68,0.229,-0.083,0.159
74.40000000000005,,,,,,,,ID:100-1,13.41,-11.04,171.72,0.243,-0.089,0.165
74.50000000000004,,,,,,,,ID:100-1,13.67,-11.03,171.76,0.258,-0.095,0.17
74.60000000000004,,,,,,,,ID:100-1,13.92,-11.00,171.81,0.273,-0.101,0.175
74.70000000000003,,,,,,,,ID:100-1,14.17,-10.97,171.86,0.288,-0.106,0.178
74.80000000000003,,,,,,,,ID:100-1,14.42,-10.93,171.92,0.302,-0.111,0.181
74.90000000000002,,,,,,,,ID:100-1,14.67,-10.90,171.99,0.317,-0.116,0.183
75.00000000000001,,,,,,,,ID:100-1,14.92,-10.87,172.05,0.331,-0.121,0.185
75.10000000000001,,,,,,,,ID:100-1,15.16,-10.87,172.11,0.346,-0.126,0.187
75.2,,,,,,,,ID:100-1,15.37,-10.90,172.16,0.36,-0.132,0.188
75.3,,,,,,,,ID:100-1,15.56,-10.95,172.22,0.373,-0.138,0.188
75.39999999999999,,,,,,,,ID:100-1,15.72,-11.03,172.29,0.385,-0.144,0.188
75.49999999999999,,,,,,,,ID:100-1,15.84,-11.12,172.37,0.396,-0.149,0.188
75.59999999999998,,,,,,,,ID:100-1,15.94,-11.22,172.45,0.408,-0.154,0.187
75.69999999999997,,,,,,,,ID:100-1,16.02,-11.34,172.54,0.418,-0.157,0.186
75.79999999999997,,,,,,,,ID:100-1,16.11,-11.47,172.63,0.429,-0.161,0.184
75.89999999999996,,,,,,,,ID:100-1,16.20,-11.61,172.72,0.438,-0.164,0.183
75.99999999999996,,,,,,,,ID:100-1,16.31,-11.76,172.82,0.447,-0.166,0.181
76.09999999999995,,,,,,,,ID:100-1,16.43,-11.90,172.93,0.456,-0.168,0.179
76.19999999999995,,,,,,,,ID:100-1,16.56,-12.03,173.05,0.464,-0.17,0.177
76.29999999999994,,,,,,,,ID:100-1,16.70,-12.14,173.18,0.472,-0.171,0.176
76.39999999999993,,,,,,,,ID:100-1,16.84,-12.21,173.33,0.481,-0.172,0.174
76.49999999999993,,,,,,,,ID:100-1,16.99,-12.24,173.49,0.489,-0.174,0.173
76.59999999999992,,,,,,,,ID:100-1,17.15,-12.22,173.67,0.498,-0.175,0.172
76.69999999999992,,,,,,,,ID:100-1,17.30,-12.16,173.87,0.507,-0.177,0.171
76.79999999999991,,,,,,,,ID:100-1,17.47,-12.07,174.08,0.516,-0.179,0.17
76.8999999999999,,,,,,,,ID:100-1,17.64,-11.95,174.30,0.525,-0.182,0.169
76.9999999999999,,,,,,,,ID:100-1,17.82,-11.80,174.51,0.535,-0.184,0.169
77.0999999999999,,,,,,,,ID:100-1,18.01,-11.65,174.73,0.544,-0.186,0.169
77.19999999999989,,,,,,,,ID:100-1,18.22,-11.48,174.96,0.552,-0.188,0.17
77.29999999999988,,,,,,,,ID:100-1,18.44,-11.31,175.19,0.561,-0.189,0.171
77.39999999999988,,,,,,,,ID:100-1,18.67,-11.13,175.43,0.569,-0.19,0.173
77.49999999999987,,,,,,,,ID:100-1,18.90,-10.93,175.68,0.576,-0.19,0.174
77.59999999999987,,,,,,,,ID:100-1,19.09,-10.65,175.94,0.581,-0.189,0.17
77.69999999999986,,,,,,,,ID:100-1,19.20,-10.24,176.22,0.582,-0.19,0.163
77.79999999999986,,,,,,,,ID:100-1,19.10,-9.63,176.52,0.578,-0.193,0.15
77.89999999999985,,,,,,,,ID:100-1,18.75,-8.83,176.86,0.573,-0.2,0.139
77.99999999999984,,,,,,,,ID:100-1,18.16,-7.87,177.22,0.569,-0.207,0.13
78.09999999999984,,,,,,,,ID:100-1,17.41,-6.84,177.61,0.571,-0.213,0.126
78.19999999999983,,,,,,,,ID:100-1,16.61,-5.79,178.01,0.576,-0.218,0.127
78.29999999999983,,,,,,,,ID:100-1,15.83,-4.81,178.42,0.583,-0.222,0.134
78.39999999999982,,,,,,,,ID:100-1,15.14,-3.94,178.83,0.593,-0.224,0.145
78.49999999999982,,,,,,,,ID:100-1,14.56,-3.24,179.25,0.604,-0.225,0.159
78.59999999999981,,,,,,,,ID:100-1,14.11,-2.73,179.67,0.614,-0.224,0.175
78.6999999999998,,,,,,,,ID:100-1,13.79,-2.41,-179.89,0.623,-0.221,0.189
78.7999999999998,,,,,,,,ID:100-1,13.59,-2.25,-179.47,0.63,-0.216,0.202
78.89999999999979,,,,,,,,ID:100-1,13.50,-2.22,-179.04,0.633,-0.21,0.212
78.99999999999979,,,,,,,,ID:100-1,13.48,-2.28,-178.62,0.632,-0.204,0.219
79.09999999999978,,,,,,,,ID:100-1,13.52,-2.38,-178.22,0.629,-0.197,0.222
79.19999999999978,,,,,,,,ID:100-1,13.58,-2.49,-177.83,0.622,-0.191,0.222
79.29999999999977,,,,,,,,ID:100-1,13.61,-2.58,-177.47,0.614,-0.185,0.219
79.39999999999976,,,,,,,,ID:100-1,13.63,-2.64,-177.12,0.605,-0.181,0.215
79.49999999999976,,,,,,,,ID:100-1,13.61,-2.66,-176.78,0.596,-0.177,0.209
79.59999999999975,,,,,,,,ID:100-1,13.58,-2.64,-176.45,0.588,-0.175,0.202
79.69999999999975,,,,,,,,ID:100-1,13.55,-2.60,-176.11,0.581,-0.173,0.196
79.79999999999974,,,,,,,,ID:100-1,13.52,-2.53,-175.77,0.576,-0.173,0.189
79.89999999999974,,,,,,,,ID:100-1,13.50,-2.45,-175.43,0.573,-0.173,0.184
79.99999999999973,,,,,,,,ID:100-1,13.48,-2.37,-175.08,0.57,-0.173,0.18
80.09999999999972,,,,,,,,ID:100-1,13.46,-2.28,-174.72,0.569,-0.173,0.176
80.19999999999972,,,,,,,,ID:100-1,13.44,-2.19,-174.36,0.568,-0.173,0.173
80.29999999999971,,,,,,,,ID:100-1,13.41,-2.13,-174.00,0.566,-0.173,0.171
80.39999999999971,,,,,,,,ID:100-1,13.38,-2.06,-173.63,0.562,-0.173,0.169
80.4999999999997,,,,,,,,ID:100-1,13.35,-2.01,-173.26,0.558,-0.171,0.167
80.5999999999997,,,,,,,,ID:100-1,13.32,-1.99,-172.89,0.552,-0.169,0.165
80.69999999999969,,,,,,,,ID:100-1,13.29,-1.98,-172.52,0.546,-0.166,0.164
80.79999999999968,,,,,,,,ID:100-1,13.26,-1.98,-172.15,0.537,-0.164,0.162
80.89999999999968,,,,,,,,ID:100-1,13.25,-1.99,-171.78,0.528,-0.16,0.16
80.99999999999967,,,,,,,,ID:100-1,13.25,-1.99,-171.42,0.518,-0.156,0.157
81.09999999999967,,,,,,,,ID:100-1,13.28,-1.97,-171.08,0.507,-0.152,0.154
81.19999999999966,,,,,,,,ID:100-1,13.33,-1.92,-170.75,0.497,-0.148,0.151
81.29999999999966,,,,,,,,ID:100-1,13.40,-1.83,-170.44,0.487,-0.144,0.146
81.39999999999965,,,,,,,,ID:100-1,13.49,-1.71,-170.17,0.479,-0.139,0.14
81.49999999999964,,,,,,,,ID:100-1,13.60,-1.56,-169.91,0.471,-0.134,0.133
81.59999999999964,,,,,,,,ID:100-1,13.70,-1.41,-169.68,0.464,-0.13,0.126
81.69999999999963,,,,,,,,ID:100-1,13.80,-1.27,-169.47,0.458,-0.127,0.119
81.79999999999963,,,,,,,,ID:100-1,13.89,-1.16,-169.27,0.451,-0.126,0.112
81.89999999999962,,,,,,,,ID:100-1,13.99,-1.07,-169.07,0.444,-0.124,0.106
81.99999999999962,,,,,,,,ID:100-1,14.07,-1.00,-168.88,0.437,-0.123,0.099
82.09999999999961,,,,,,,,ID:100-1,14.15,-0.94,-168.68,0.429,-0.122,0.092
82.1999999999996,,,,,,,,ID:100-1,14.20,-0.89,-168.48,0.421,-0.12,0.084
82.2999999999996,,,,,,,,ID:100-1,14.24,-0.83,-168.27,0.413,-0.119,0.077
82.3999999999996,,,,,,,,ID:100-1,14.26,-0.78,-168.06,0.405,-0.117,0.071
82.49999999999959,,,,,,,,ID:100-1,14.28,-0.74,-167.86,0.396,-0.115,0.065
82.59999999999958,,,,,,,,ID:100-1,14.29,-0.71,-167.64,0.387,-0.112,0.059
82.69999999999958,,,,,,,,ID:100-1,14.30,-0.69,-167.43,0.378,-0.109,0.054
82.79999999999957,,,,,,,,ID:100-1,14.31,-0.71,-167.21,0.37,-0.107,0.05
82.89999999999957,,,,,,,,ID:100-1,14.30,-0.75,-166.98,0.361,-0.104,0.046
82.99999999999956,,,,,,,,ID:100-1,14.29,-0.81,-166.77,0.354,-0.101,0.043
83.09999999999955,,,,,,,,ID:100-1,14.25,-0.90,-166.56,0.346,-0.099,0.041
83.19999999999955,,,,,,,,ID:100-1,14.20,-0.99,-166.36,0.339,-0.096,0.039
83.29999999999954,,,,,,,,ID:100-1,14.13,-1.10,-166.17,0.332,-0.093,0.039
83.39999999999954,,,,,,,,ID:100-1,14.05,-1.21,-166.00,0.325,-0.091,0.039
83.49999999999953,,,,,,,,ID:100-1,13.97,-1.32,-165.83,0.319,-0.088,0.04
83.59999999999953,,,,,,,,ID:100-1,13.89,-1.42,-165.68,0.313,-0.085,0.042
83.69999999999952,,,,,,,,ID:100-1,13.82,-1.50,-165.54,0.306,-0.083,0.044
83.79999999999951,,,,,,,,ID:100-1,13.77,-1.56,-165.39,0.299,-0.081,0.047
83.89999999999951,,,,,,,,ID:100-1,13.74,-1.59,-165.24,0.291,-0.078,0.049
83.9999999999995,,,,,,,,ID:100-1,13.73,-1.59,-165.09,0.283,-0.076,0.051
84.0999999999995,,,,,,,,ID:100-1,13.74,-1.57,-164.93,0.275,-0.073,0.052
84.19999999999949,,,,,,,,ID:100-1,13.78,-1.51,-164.76,0.266,-0.071,0.052
84.29999999999949,,,,,,,,ID:100-1,13.83,-1.43,-164.59,0.258,-0.069,0.052
84.39999999999948,,,,,,,,ID:100-1,13.89,-1.33,-164.42,0.249,-0.067,0.052
84.49999999999947,,,,,,,,ID:100-1,13.96,-1.21,-164.25,0.24,-0.064,0.05
84.59999999999947,,,,,,,,ID:100-1,14.03,-1.08,-164.08,0.231,-0.062,0.048
84.69999999999946,,,,,,,,ID:100-1,14.10,-0.95,-163.91,0.221,-0.061,0.046
84.79999999999946,,,,,,,,ID:100-1,14.15,-0.83,-163.74,0.211,-0.059,0.043
84.89999999999945,,,,,,,,ID:100-1,14.19,-0.72,-163.57,0.2,-0.058,0.039
84.99999999999945,,,,,,,,ID:100-1,14.21,-0.63,-163.41,0.189,-0.056,0.035
85.09999999999944,,,,,,,,ID:100-1,14.22,-0.57,-163.24,0.178,-0.055,0.031
85.19999999999943,,,,,,,,ID:100-1,14.21,-0.52,-163.08,0.167,-0.053,0.026
85.29999999999943,,,,,,,,ID:100-1,14.18,-0.50,-162.93,0.156,-0.052,0.021
85.39999999999942,,,,,,,,ID:100-1,14.13,-0.49,-162.79,0.146,-0.05,0.017
85.49999999999942,,,,,,,,ID:100-1,14.05,-0.50,-162.66,0.137,-0.048,0.012
85.59999999999941,,,,,,,,ID:100-1,13.96,-0.52,-162.54,0.129,-0.047,0.008
85.6999999999994,,,,,,,,ID:100-1,13.84,-0.56,-162.43,0.122,-0.045,0.004
85.7999999999994,,,,,,,,ID:100-1,13.71,-0.61,-162.33,0.115,-0.044,0.001
85.8999999999994,,,,,,,,ID:100-1,13.56,-0.67,-162.23,0.108,-0.043,-0.001
85.99999999999939,,,,,,,,ID:100-1,13.41,-0.73,-162.14,0.102,-0.042,-0.004
86.09999999999938,,,,,,,,ID:100-1,13.25,-0.79,-162.05,0.097,-0.042,-0.006
86.19999999999938,,,,,,,,ID:100-1,13.09,-0.87,-161.95,0.092,-0.041,-0.009
86.29999999999937,,,,,,,,ID:100-1,12.92,-0.96,-161.84,0.088,-0.04,-0.012
86.39999999999937,,,,,,,,ID:100-1,12.74,-1.05,-161.73,0.085,-0.038,-0.015
86.49999999999936,,,,,,,,ID:100-1,12.56,-1.13,-161.62,0.082,-0.037,-0.017
86.59999999999935,,,,,,,,ID:100-1,12.37,-1.20,-161.51,0.079,-0.036,-0.021
86.69999999999935,,,,,,,,ID:100-1,12.18,-1.25,-161.41,0.076,-0.033,-0.023
86.79999999999934,,,,,,,,ID:100-1,12.01,-1.31,-161.34,0.072,-0.027,-0.022
86.89999999999934,,,,,,,,ID:100-1,11.91,-1.36,-161.33,0.066,-0.019,-0.02
86.99999999999933,,,,,,,,ID:100-1,11.85,-1.35,-161.39,0.058,-0.012,-0.019
87.09999999999933,,,,,,,,ID:100-1,11.79,-1.30,-161.51,0.05,-0.007,-0.02
87.19999999999932,,,,,,,,ID:100-1,11.71,-1.21,-161.66,0.044,-0.005,-0.022
87.29999999999932,,,,,,,,ID:100-1,11.60,-1.13,-161.82,0.042,-0.004,-0.023
87.39999999999931,,,,,,,,ID:100-1,11.47,-1.07,-161.96,0.041,-0.004,-0.022
87.4999999999993,,,,,,,,ID:100-1,11.33,-1.06,-162.06,0.041,-0.004,-0.019
87.5999999999993,,,,,,,,ID:100-1,11.16,-1.09,-162.13,0.042,-0.003,-0.016
87.69999999999929,,,,,,,,ID:100-1,11.00,-1.15,-162.17,0.042,-0.002,-0.014
87.79999999999929,,,,,,,,ID:100-1,10.84,-1.24,-162.21,0.041,0.0,-0.012
87.89999999999928,,,,,,,,ID:100-1,10.71,-1.34,-162.24,0.039,0.003,-0.01
87.99999999999928,,,,,,,,ID:100-1,10.64,-1.42,-162.27,0.036,0.005,-0.008
88.09999999999927,,,,,,,,ID:100-1,10.61,-1.48,-162.29,0.032,0.008,-0.006
88.19999999999926,,,,,,,,ID:100-1,10.62,-1.53,-162.30,0.029,0.009,-0.004
88.29999999999926,,,,,,,,ID:100-1,10.67,-1.57,-162.29,0.026,0.011,-0.002
88.39999999999925,,,,,,,,ID:100-1,10.74,-1.60,-162.27,0.024,0.012,0.0
88.49999999999925,,,,,,,,ID:100-1,10.83,-1.62,-162.24,0.023,0.014,0.001
88.59999999999924,,,,,,,,ID:100-1,10.92,-1.62,-162.21,0.023,0.015,0.002
88.69999999999924,,,,,,,,ID:100-1,11.02,-1.61,-162.17,0.024,0.016,0.003
88.79999999999923,,,,,,,,ID:100-1,11.13,-1.59,-162.13,0.024,0.018,0.004
88.89999999999922,,,,,,,,ID:100-1,11.25,-1.54,-162.09,0.025,0.019,0.005
88.99999999999922,,,,,,,,ID:100-1,11.37,-1.48,-162.04,0.026,0.021,0.006
89.09999999999921,,,,,,,,ID:100-1,11.52,-1.40,-161.99,0.026,0.022,0.007
89.1999999999992,,,,,,,,ID:100-1,11.67,-1.32,-161.93,0.027,0.023,0.007
89.2999999999992,,,,,,,,ID:100-1,11.84,-1.24,-161.87,0.028,0.023,0.008
89.3999999999992,,,,,,,,ID:100-1,12.01,-1.16,-161.79,0.029,0.024,0.009
89.49999999999919,,,,,,,,ID:100-1,12.19,-1.09,-161.71,0.029,0.025,0.009
89.59999999999918,,,,,,,,ID:100-1,12.38,-1.01,-161.63,0.03,0.026,0.009
89.69999999999918,,,,,,,,ID:100-1,12.57,-0.93,-161.55,0.029,0.027,0.009
89.79999999999917,,,,,,,,ID:100-1,12.76,-0.86,-161.46,0.029,0.027,0.009
89.89999999999917,,,,,,,,ID:100-1,12.97,-0.79,-161.38,0.0,0.0,0.0
89.99999999999916,,,,,,,,ID:100-1,13.18,-0.72,-161.29,0.001,0.0,0.0
90.09999999999916,,,,,,,,ID:100-1,13.39,-0.66,-161.15,0.007,0.001,0.0
90.19999999999915,,,,,,,,ID:100-1,13.60,-0.62,-160.96,0.016,0.002,0.0
90.29999999999914,,,,,,,,ID:100-1,13.78,-0.60,-160.75,0.025,0.001,0.0
90.39999999999914,,,,,,,,ID:100-1,13.94,-0.60,-160.54,0.032,0.0,-0.002
90.49999999999913,,,,,,,,ID:100-1,14.05,-0.61,-160.35,0.036,0.002,-0.006
90.59999999999913,,,,,,,,ID:100-1,14.12,-0.61,-160.19,0.039,0.006,-0.012
90.69999999999912,,,,,,,,ID:100-1,14.15,-0.57,-160.06,0.042,0.008,-0.02
90.79999999999912,,,,,,,,ID:100-1,14.10,-0.48,-159.95,0.045,0.009,-0.031
90.89999999999911,,,,,,,,ID:100-1,13.96,-0.34,-159.87,0.049,0.009,-0.043
90.9999999999991,,,,,,,,ID:100-1,13.73,-0.17,-159.82,0.052,0.009,-0.056
91.0999999999991,,,,,,,,ID:100-1,13.44,0.00,-159.81,0.054,0.009,-0.067
91.1999999999991,,,,,,,,ID:100-1,13.13,0.17,-159.81,0.056,0.009,-0.074
91.29999999999909,,,,,,,,ID:100-1,12.85,0.33,-159.83,0.059,0.009,-0.079
91.39999999999908,,,,,,,,ID:100-1,12.63,0.46,-159.84,0.061,0.008,-0.08
91.49999999999908,,,,,,,,ID:100-1,12.46,0.57,-159.84,0.062,0.006,-0.08
91.59999999999907,,,,,,,,ID:100-1,12.34,0.67,-159.83,0.062,0.004,-0.079
91.69999999999906,,,,,,,,ID:100-1,12.28,0.78,-159.81,0.061,0.002,-0.078
91.79999999999906,,,,,,,,ID:100-1,12.25,0.89,-159.77,0.06,0.001,-0.079
91.89999999999905,,,,,,,,ID:100-1,12.25,1.02,-159.72,0.059,0.0,-0.079
91.99999999999905,,,,,,,,ID:100-1,12.27,1.16,-159.66,0.059,-0.001,-0.081
92.09999999999904,,,,,,,,ID:100-1,12.30,1.31,-159.61,0.059,-0.001,-0.084
92.19999999999904,,,,,,,,ID:100-1,12.31,1.46,-159.55,0.058,-0.002,-0.087
92.29999999999903,,,,,,,,ID:100-1,12.33,1.62,-159.51,0.055,-0.001,-0.09
92.39999999999903,,,,,,,,ID:100-1,12.37,1.81,-159.49,0.048,0.0,-0.094
92.49999999999902,,,,,,,,ID:100-1,12.41,2.02,-159.50,0.042,0.0,-0.097
92.59999999999901,,,,,,,,ID:100-1,12.45,2.25,-159.51,0.037,-0.001,-0.099
92.69999999999901,,,,,,,,ID:100-1,12.48,2.46,-159.51,0.033,-0.003,-0.1
92.799999999999,,,,,,,,ID:100-1,12.51,2.64,-159.51,0.029,-0.004,-0.098
92.899999999999,,,,,,,,ID:100-1,12.55,2.81,-159.50,0.024,-0.006,-0.095
92.99999999999899,,,,,,,,ID:100-1,12.61,2.94,-159.49,0.019,-0.007,-0.092
93.09999999999899,,,,,,,,ID:100-1,12.68,3.04,-159.48,0.014,-0.009,-0.088
93.19999999999898,,,,,,,,ID:100-1,12.76,3.10,-159.47,0.009,-0.011,-0.084
93.29999999999897,,,,,,,,ID:100-1,12.85,3.12,-159.45,0.005,-0.012,-0.08
93.39999999999897,,,,,,,,ID:100-1,12.94,3.09,-159.43,0.001,-0.013,-0.076
93.49999999999896,,,,,,,,ID:100-1,13.05,3.05,-159.40,-0.003,-0.012,-0.072
93.59999999999896,,,,,,,,ID:100-1,13.18,2.98,-159.38,-0.007,-0.012,-0.068
93.69999999999895,,,,,,,,ID:100-1,13.30,2.88,-159.35,-0.008,-0.011,-0.063
93.79999999999895,,,,,,,,ID:100-1,13.45,2.75,-159.34,-0.007,-0.006,-0.058
93.89999999999894,,,,,,,,ID:100-1,13.62,2.61,-159.34,-0.009,-0.001,-0.054
93.99999999999893,,,,,,,,ID:100-1,13.81,2.48,-159.37,-0.013,0.002,-0.05
94.09999999999893,,,,,,,,ID:100-1,13.99,2.38,-159.43,-0.017,0.004,-0.046
94.19999999999892,,,,,,,,ID:100-1,14.13,2.28,-159.50,-0.019,0.007,-0.043
94.29999999999892,,,,,,,,ID:100-1,14.25,2.18,-159.58,-0.023,0.01,-0.041
94.39999999999891,,,,,,,,ID:100-1,14.37,2.11,-159.65,-0.028,0.013,-0.041
94.4999999999989,,,,,,,,ID:100-1,14.50,2.05,-159.74,-0.034,0.016,-0.041
94.5999999999989,,,,,,,,ID:100-1,14.64,2.02,-159.84,-0.039,0.016,-0.038
94.6999999999989,,,,,,,,ID:100-1,14.76,2.01,-159.96,-0.04,0.016,-0.033
94.79999999999889,,,,,,,,ID:100-1,14.87,2.01,-160.08,-0.04,0.016,-0.028
94.89999999999888,,,,,,,,ID:100-1,14.97,2.02,-160.20,-0.04,0.017,-0.026
94.99999999999888,,,,,,,,ID:100-1,15.05,2.02,-160.30,-0.04,0.017,-0.024
95.09999999999887,,,,,,,,ID:100-1,15.11,2.03,-160.40,0.0,0.0,0.0
95.19999999999887,,,,,,,,ID:100-1,15.16,2.02,-160.50,0.0,0.0,0.0
95.29999999999886,,,,,,,,ID:100-1,15.20,2.00,-160.60,-0.002,-0.001,0.0
95.39999999999885,,,,,,,,ID:100-1,15.22,1.99,-160.71,-0.004,0.0,0.0
95.49999999999885,,,,,,,,ID:100-1,15.20,1.97,-160.83,-0.006,0.0,0.0
95.59999999999884,,,,,,,,ID:100-1,15.17,1.95,-160.98,-0.008,0.0,-0.001
95.69999999999884,,,,,,,,ID:100-1,15.15,1.94,-161.16,-0.009,0.0,-0.002
95.79999999999883,,,,,,,,ID:100-1,15.12,1.90,-161.50,-0.005,-0.003,-0.001
95.89999999999883,,,,,,,,ID:100-1,14.98,1.77,-162.10,-0.017,0.004,0.012
95.99999999999882,,,,,,,,ID:100-1,14.54,1.48,-162.82,-0.038,0.015,0.027
96.09999999999881,,,,,,,,ID:100-1,13.89,1.11,-163.53,-0.047,0.019,0.033
96.19999999999881,,,,,,,,ID:100-1,13.22,0.66,-164.24,-0.048,0.018,0.035
96.2999999999988,,,,,,,,ID:100-1,12.61,0.20,-165.01,-0.049,0.014,0.033
96.3999999999988,,,,,,,,ID:100-1,12.09,-0.23,-165.86,-0.051,0.01,0.028
96.49999999999879,,,,,,,,ID:100-1,11.68,-0.64,-166.79,-0.054,0.006,0.025
96.59999999999879,,,,,,,,ID:100-1,11.33,-0.99,-167.78,-0.06,0.0,0.023
96.69999999999878,,,,,,,,ID:100-1,10.95,-1.27,-168.83,-0.066,-0.007,0.022
96.79999999999878,,,,,,,,ID:100-1,10.50,-1.47,-169.90,-0.071,-0.018,0.02
96.89999999999877,,,,,,,,ID:100-1,9.93,-1.55,-170.90,-0.076,-0.036,0.013
96.99999999999876,,,,,,,,ID:100-1,9.20,-1.40,-171.71,-0.078,-0.07,-0.001
97.09999999999876,,,,,,,,ID:100-1,8.35,-0.90,-172.03,-0.068,-0.117,-0.026
97.19999999999875,,,,,,,,ID:100-1,7.55,-0.05,-171.70,-0.041,-0.142,-0.052
97.29999999999875,,,,,,,,ID:100-1,7.10,0.98,-171.15,-0.019,-0.12,-0.069
97.39999999999874,,,,,,,,ID:100-1,7.24,1.92,-170.83,-0.006,-0.093,-0.072
97.49999999999874,,,,,,,,ID:100-1,7.83,2.62,-170.73,0.0,-0.086,-0.061
97.59999999999873,,,,,,,,ID:100-1,8.51,3.13,-170.72,-0.004,-0.086,-0.045
97.69999999999872,,,,,,,,ID:100-1,8.97,3.60,-170.72,-0.013,-0.085,-0.03
97.79999999999872,,,,,,,,ID:100-1,9.14,4.01,-170.73,-0.021,-0.083,-0.014
97.89999999999871,,,,,,,,ID:100-1,9.11,4.30,-170.73,-0.027,-0.082,0.0
97.9999999999987,,,,,,,,ID:100-1,9.00,4.43,-170.71,-0.03,-0.081,0.01
98.0999999999987,,,,,,,,ID:100-1,8.90,4.47,-170.68,-0.029,-0.079,0.016
98.1999999999987,,,,,,,,ID:100-1,8.83,4.43,-170.64,-0.026,-0.077,0.019
98.29999999999869,,,,,,,,ID:100-1,8.79,4.38,-170.58,-0.021,-0.075,0.019
98.39999999999868,,,,,,,,ID:100-1,8.78,4.34,-170.52,-0.016,-0.072,0.018
98.49999999999868,,,,,,,,ID:100-1,8.78,4.34,-170.45,-0.011,-0.07,0.018
98.59999999999867,,,,,,,,ID:100-1,8.78,4.39,-170.38,-0.007,-0.067,0.018
98.69999999999867,,,,,,,,ID:100-1,8.80,4.48,-170.31,-0.002,-0.065,0.019
98.79999999999866,,,,,,,,ID:100-1,8.83,4.62,-170.23,0.001,-0.064,0.02
98.89999999999866,,,,,,,,ID:100-1,8.87,4.81,-170.13,0.003,-0.064,0.021
98.99999999999865,,,,,,,,ID:100-1,8.93,5.00,-170.03,0.005,-0.064,0.022
99.09999999999864,,,,,,,,ID:100-1,9.01,5.19,-169.91,0.006,-0.064,0.024
99.19999999999864,,,,,,,,ID:100-1,9.10,5.35,-169.77,0.006,-0.066,0.026
99.29999999999863,,,,,,,,ID:100-1,9.19,5.49,-169.62,0.004,-0.068,0.029
99.39999999999863,,,,,,,,ID:100-1,9.26,5.61,-169.46,0.003,-0.071,0.032
99.49999999999862,,,,,,,,ID:100-1,9.33,5.71,-169.29,0.0,-0.074,0.036
99.59999999999862,,,,,,,,ID:100-1,9.39,5.78,-169.11,-0.001,-0.078,0.039
99.69999999999861,,,,,,,,ID:100-1,9.44,5.84,-168.93,-0.004,-0.081,0.041
99.7999999999986,,,,,,,,ID:100-1,9.49,5.88,-168.73,-0.006,-0.084,0.043
99.8999999999986,,,,,,,,ID:100-1,9.54,5.91,-168.53,-0.008,-0.086,0.044
99.9999999999986,,,,,,,,ID:100-1,9.60,5.91,-168.32,-0.009,-0.089,0.044
100.09999999999859,,,,,,,,ID:100-1,9.66,5.92,-168.11,-0.01,-0.09,0.044
100.19999999999858,,,,,,,,ID:100-1,9.73,5.92,-167.89,-0.011,-0.092,0.043
100.29999999999858,,,,,,,,ID:100-1,9.80,5.93,-167.67,-0.012,-0.092,0.042
100.39999999999857,,,,,,,,ID:100-1,9.88,5.94,-167.45,-0.012,-0.093,0.041
100.49999999999856,,,,,,,,ID:100-1,9.96,5.96,-167.24,-0.013,-0.093,0.04
100.59999999999856,,,,,,,,ID:100-1,10.03,6.00,-167.04,-0.013,-0.092,0.039
100.69999999999855,,,,,,,,ID:100-1,10.09,6.05,-166.85,-0.013,-0.092,0.038
100.79999999999855,,,,,,,,ID:100-1,10.15,6.11,-166.68,-0.014,-0.091,0.038
100.89999999999854,,,,,,,,ID:100-1,10.20,6.18,-166.53,-0.014,-0.09,0.037
100.99999999999854,,,,,,,,ID:100-1,10.25,6.26,-166.39,-0.014,-0.089,0.036
101.09999999999853,,,,,,,,ID:100-1,10.29,6.34,-166.25,-0.014,-0.087,0.036
101.19999999999852,,,,,,,,ID:100-1,10.33,6.42,-166.12,-0.015,-0.086,0.035
101.29999999999852,,,,,,,,ID:100-1,10.37,6.49,-165.99,-0.016,-0.085,0.034
101.39999999999851,,,,,,,,ID:100-1,10.40,6.56,-165.87,-0.017,-0.084,0.034
101.49999999999851,,,,,,,,ID:100-1,10.43,6.61,-165.77,-0.018,-0.083,0.033
101.5999999999985,,,,,,,,ID:100-1,10.46,6.64,-165.67,-0.02,-0.083,0.033
101.6999999999985,,,,,,,,ID:100-1,10.48,6.67,-165.59,-0.022,-0.083,0.033
101.79999999999849,,,,,,,,ID:100-1,10.49,6.68,-165.51,-0.024,-0.083,0.033
101.89999999999849,,,,,,,,ID:100-1,10.50,6.68,-165.44,-0.025,-0.082,0.033
101.99999999999848,,,,,,,,ID:100-1,10.50,6.67,-165.37,-0.027,-0.082,0.033
102.09999999999847,,,,,,,,ID:100-1,10.49,6.66,-165.31,-0.028,-0.081,0.032
102.19999999999847,,,,,,,,ID:100-1,10.49,6.64,-165.25,-0.03,-0.081,0.032
102.29999999999846,,,,,,,,ID:100-1,10.47,6.62,-165.20,-0.031,-0.081,0.031
102.39999999999846,,,,,,,,ID:100-1,10.46,6.60,-165.16,-0.032,-0.08,0.03
102.49999999999845,,,,,,,,ID:100-1,10.44,6.58,-165.12,-0.033,-0.08,0.029
102.59999999999845,,,,,,,,ID:100-1,10.42,6.56,-165.09,-0.034,-0.079,0.028
102.69999999999844,,,,,,,,ID:100-1,10.40,6.54,-165.07,-0.034,-0.078,0.027
102.79999999999843,,,,,,,,ID:100-1,10.38,6.52,-165.04,-0.035,-0.077,0.026
102.89999999999843,,,,,,,,ID:100-1,10.36,6.50,-165.03,-0.035,-0.076,0.024
102.99999999999842,,,,,,,,ID:100-1,10.35,6.48,-165.01,-0.036,-0.074,0.023
103.09999999999842,,,,,,,,ID:100-1,10.33,6.45,-165.00,-0.036,-0.073,0.021
103.19999999999841,,,,,,,,ID:100-1,10.32,6.42,-165.00,-0.036,-0.071,0.019
103.2999999999984,,,,,,,,ID:100-1,10.31,6.39,-164.99,-0.037,-0.07,0.017
103.3999999999984,,,,,,,,ID:100-1,10.31,6.35,-164.99,-0.037,-0.068,0.015
103.4999999999984,,,,,,,,ID:100-1,10.32,6.30,-164.99,-0.037,-0.066,0.012
103.59999999999839,,,,,,,,ID:100-1,10.33,6.24,-164.98,-0.038,-0.065,0.01
103.69999999999838,,,,,,,,ID:100-1,10.35,6.18,-164.98,-0.038,-0.063,0.008
103.79999999999838,,,,,,,,ID:100-1,10.37,6.11,-164.98,-0.038,-0.061,0.005
103.89999999999837,,,,,,,,ID:100-1,10.40,6.04,-164.97,-0.038,-0.06,0.003
103.99999999999837,,,,,,,,ID:100-1,10.42,5.98,-164.97,-0.038,-0.058,0.001
104.09999999999836,,,,,,,,ID:100-1,10.45,5.92,-164.96,-0.037,-0.057,0.0
104.19999999999835,,,,,,,,ID:100-1,10.48,5.87,-164.96,-0.037,-0.056,-0.001
104.29999999999835,,,,,,,,ID:100-1,10.51,5.83,-164.96,-0.037,-0.055,-0.003
104.39999999999834,,,,,,,,ID:100-1,10.54,5.79,-164.97,-0.037,-0.054,-0.004
104.49999999999834,,,,,,,,ID:100-1,10.58,5.76,-164.97,-0.036,-0.054,-0.006
104.59999999999833,,,,,,,,ID:100-1,10.61,5.73,-164.97,-0.036,-0.053,-0.007
104.69999999999833,,,,,,,,ID:100-1,10.65,5.70,-164.97,-0.036,-0.053,-0.008
104.79999999999832,,,,,,,,ID:100-1,10.69,5.67,-164.98,-0.036,-0.053,-0.01
104.89999999999831,,,,,,,,ID:100-1,10.73,5.65,-164.99,-0.036,-0.053,-0.011
104.99999999999831,,,,,,,,ID:100-1,10.77,5.64,-164.99,-0.036,-0.053,-0.012
105.0999999999983,,,,,,,,ID:100-1,10.80,5.62,-165.00,-0.036,-0.053,-0.012
105.1999999999983,,,,,,,,ID:100-1,10.82,5.62,-165.01,-0.036,-0.053,-0.013
105.29999999999829,,,,,,,,ID:100-1,10.85,5.62,-165.01,-0.035,-0.053,-0.013
105.39999999999829,,,,,,,,ID:100-1,10.87,5.63,-165.01,-0.034,-0.054,-0.014
105.49999999999828,,,,,,,,ID:100-1,10.90,5.65,-165.01,-0.034,-0.054,-0.015
105.59999999999827,,,,,,,,ID:100-1,10.92,5.67,-165.00,-0.033,-0.054,-0.015
105.69999999999827,,,,,,,,ID:100-1,10.94,5.70,-164.99,-0.033,-0.055,-0.016
105.79999999999826,,,,,,,,ID:100-1,10.97,5.72,-164.98,-0.032,-0.055,-0.016
105.89999999999826,,,,,,,,ID:100-1,11.00,5.75,-164.97,0.0,0.0,0.0
105.99999999999825,,,,,,,,ID:100-1,11.03,5.77,-164.96,0.0,0.0,0.0
106.09999999999825,,,,,,,,ID:100-1,11.05,5.80,-164.94,0.0,0.0,0.0
106.19999999999824,,,,,,,,ID:100-1,11.07,5.82,-164.93,0.0,0.0,0.0
106.29999999999824,,,,,,,,ID:100-1,11.09,5.85,-164.92,0.0,-0.001,0.0
106.39999999999823,,,,,,,,ID:100-1,11.12,5.87,-164.90,0.001,-0.001,0.0
106.49999999999822,,,,,,,,ID:100-1,11.14,5.90,-164.88,0.001,-0.002,0.0
106.59999999999822,,,,,,,,ID:100-1,11.16,5.92,-164.87,0.001,-0.003,0.0
106.69999999999821,,,,,,,,ID:100-1,11.18,5.95,-164.85,0.001,-0.004,0.0
106.7999999999982,,,,,,,,ID:100-1,11.21,5.97,-164.83,0.002,-0.004,0.0
106.8999999999982,,,,,,,,ID:100-1,11.23,5.99,-164.81,0.002,-0.005,0.0
106.9999999999982,,,,,,,,ID:100-1,11.26,6.01,-164.78,0.002,-0.005,0.0
107.09999999999819,,,,,,,,ID:100-1,11.29,6.03,-164.75,0.0,0.0,0.0
107.19999999999818,,,,,,,,ID:100-1,11.33,6.05,-164.73,0.0,0.0,0.0
107.29999999999818,,,,,,,,ID:100-1,11.36,6.07,-164.70,0.0,0.0,0.0
107.39999999999817,,,,,,,,ID:100-1,11.39,6.09,-164.67,0.0,0.0,0.0
107.49999999999817,,,,,,,,ID:100-1,11.43,6.10,-164.64,0.0,0.0,0.0
107.59999999999816,,,,,,,,ID:100-1,11.46,6.10,-164.61,0.0,0.0,0.0
107.69999999999816,,,,,,,,ID:100-1,11.49,6.11,-164.59,0.0,0.0,0.0
107.79999999999815,,,,,,,,ID:100-1,11.52,6.11,-164.56,0.0,0.0,0.0
107.89999999999814,,,,,,,,ID:100-1,11.55,6.11,-164.53,0.001,0.001,0.0
107.99999999999814,,,,,,,,ID:100-1,11.58,6.10,-164.51,0.001,0.002,0.001
108.09999999999813,,,,,,,,ID:100-1,11.61,6.10,-164.48,0.002,0.003,0.001
108.19999999999813,,,,,,,,ID:100-1,11.64,6.10,-164.46,0.002,0.004,0.002
108.29999999999812,,,,,,,,ID:100-1,11.67,6.10,-164.43,0.003,0.005,0.002
108.39999999999812,,,,,,,,ID:100-1,11.70,6.10,-164.41,0.004,0.006,0.003
108.49999999999811,,,,,,,,ID:100-1,11.73,6.09,-164.39,0.004,0.006,0.003
108.5999999999981,,,,,,,,ID:100-1,11.77,6.09,-164.38,0.004,0.007,0.003
108.6999999999981,,,,,,,,ID:100-1,11.80,6.08,-164.36,0.004,0.008,0.004
108.7999999999981,,,,,,,,ID:100-1,11.83,6.07,-164.34,0.005,0.008,0.004
108.89999999999809,,,,,,,,ID:100-1,11.86,6.07,-164.32,0.005,0.009,0.005
108.99999999999808,,,,,,,,ID:100-1,11.89,6.06,-164.31,0.006,0.009,0.006
109.09999999999808,,,,,,,,ID:100-1,11.92,6.06,-164.29,0.006,0.01,0.008
109.19999999999807,,,,,,,,ID:100-1,11.94,6.06,-164.28,0.006,0.01,0.009
109.29999999999806,,,,,,,,ID:100-1,11.95,6.06,-164.27,0.007,0.011,0.011
109.39999999999806,,,,,,,,ID:100-1,11.96,6.07,-164.26,0.007,0.011,0.012
109.49999999999805,,,,,,,,ID:100-1,11.97,6.08,-164.26,0.0,0.0,0.0
109.59999999999805,,,,,,,,ID:100-1,11.99,6.07,-164.26,0.0,0.0,0.0
109.69999999999804,,,,,,,,ID:100-1,12.00,6.06,-164.26,-0.001,0.0,0.0
109.79999999999804,,,,,,,,ID:100-1,12.02,6.04,-164.26,-0.001,0.0,0.0
109.89999999999803,,,,,,,,ID:100-1,12.03,6.01,-164.25,-0.002,0.0,0.0
109.99999999999802,,,,,,,,ID:100-1,12.03,5.99,-164.25,-0.002,0.0,0.001
110.09999999999802,,,,,,,,ID:100-1,12.03,5.95,-164.24,0.0,0.0,0.0
110.19999999999801,,,,,,,,ID:100-1,12.03,5.92,-164.24,0.0,0.0,0.0
110.29999999999801,,,,,,,,ID:100-1,12.04,5.89,-164.24,0.0,0.0,0.0
110.399999999998,,,,,,,,ID:100-1,12.04,5.86,-164.25,0.0,0.0,0.0
110.499999999998,,,,,,,,ID:100-1,12.05,5.83,-164.25,0.0,0.0,0.0
110.59999999999799,,,,,,,,ID:100-1,12.05,5.81,-164.25,0.0,0.0,0.0
110.69999999999798,,,,,,,,ID:100-1,12.06,5.79,-164.25,0.0,0.0,-0.001
110.79999999999798,,,,,,,,ID:100-1,12.07,5.76,-164.25,0.0,0.0,-0.001
110.89999999999797,,,,,,,,ID:100-1,12.09,5.74,-164.25,0.0,0.0,-0.002
110.99999999999797,,,,,,,,ID:100-1,12.11,5.71,-164.25,0.0,0.0,-0.002
111.09999999999796,,,,,,,,ID:100-1,12.13,5.69,-164.25,-0.001,0.0,-0.003
111.19999999999796,,,,,,,,ID:100-1,12.15,5.66,-164.25,-0.002,-0.001,-0.003
111.29999999999795,,,,,,,,ID:100-1,12.16,5.64,-164.25,-0.002,-0.001,-0.003
111.39999999999795,,,,,,,,ID:100-1,12.18,5.62,-164.25,-0.003,-0.002,-0.004
111.49999999999794,,,,,,,,ID:100-1,12.19,5.59,-164.24,-0.003,-0.003,-0.004
111.59999999999793,,,,,,,,ID:100-1,12.21,5.57,-164.24,-0.004,-0.003,-0.005
111.69999999999793,,,,,,,,ID:100-1,12.23,5.55,-164.23,-0.004,-0.004,-0.005
111.79999999999792,,,,,,,,ID:100-1,12.24,5.54,-164.22,-0.005,-0.004,-0.006
111.89999999999792,,,,,,,,ID:100-1,12.26,5.52,-164.22,-0.005,-0.005,-0.006
111.99999999999791,,,,,,,,ID:100-1,12.28,5.50,-164.21,-0.005,-0.005,-0.007
112.0999999999979,,,,,,,,ID:100-1,12.30,5.48,-164.20,-0.006,-0.005,-0.007
112.1999999999979,,,,,,,,ID:100-1,12.32,5.47,-164.19,0.0,0.0,0.0
112.2999999999979,,,,,,,,ID:100-1,12.34,5.46,-164.19,0.0,0.0,0.0
112.39999999999789,,,,,,,,ID:100-1,12.35,5.45,-164.18,0.0,0.0,0.0
112.49999999999788,,,,,,,,ID:100-1,12.36,5.45,-164.17,0.0,0.0,0.0
112.59999999999788,,,,,,,,ID:100-1,12.37,5.44,-164.17,0.0,-0.001,0.0
112.69999999999787,,,,,,,,ID:100-1,12.39,5.43,-164.16,-0.001,-0.001,-0.001
112.79999999999787,,,,,,,,ID:100-1,12.41,5.42,-164.16,-0.002,-0.002,-0.001
112.89999999999786,,,,,,,,ID:100-1,12.43,5.41,-164.15,-0.002,-0.003,-0.001
112.99999999999785,,,,,,,,ID:100-1,12.44,5.40,-164.14,-0.003,-0.003,-0.001
113.09999999999785,,,,,,,,ID:100-1,12.46,5.39,-164.13,-0.004,-0.004,-0.001
113.19999999999784,,,,,,,,ID:100-1,12.48,5.37,-164.12,-0.004,-0.005,-0.002
113.29999999999784,,,,,,,,ID:100-1,12.50,5.35,-164.12,-0.005,-0.005,-0.002
113.39999999999783,,,,,,,,ID:100-1,12.51,5.34,-164.11,-0.005,-0.006,-0.002
113.49999999999783,,,,,,,,ID:100-1,12.52,5.32,-164.10,-0.006,-0.006,-0.001
113.59999999999782,,,,,,,,ID:100-1,12.53,5.30,-164.09,0.0,0.0,0.0
113.69999999999781,,,,,,,,ID:100-1,12.53,5.29,-164.08,0.0,0.0,0.0
113.79999999999781,,,,,,,,ID:100-1,12.53,5.28,-164.07,0.0,0.0,0.0
113.8999999999978,,,,,,,,ID:100-1,12.53,5.27,-164.07,0.0,0.0,0.0
113.9999999999978,,,,,,,,ID:100-1,12.53,5.26,-164.06,0.0,0.0,0.0
114.09999999999779,,,,,,,,ID:100-1,12.53,5.25,-164.06,0.0,0.0,0.0
114.19999999999779,,,,,,,,ID:100-1,12.53,5.25,-164.06,0.0,0.0,0.0
114.29999999999778,,,,,,,,ID:100-1,12.52,5.24,-164.05,0.0,0.0,0.0
114.39999999999777,,,,,,,,ID:100-1,12.52,5.24,-164.05,0.0,0.0,0.0
114.49999999999777,,,,,,,,ID:100-1,12.52,5.24,-164.04,0.0,0.0,0.0
114.59999999999776,,,,,,,,ID:100-1,12.52,5.24,-164.04,0.0,0.0,0.0
114.69999999999776,,,,,,,,ID:100-1,12.51,5.25,-164.03,0.0,0.0,0.0
114.79999999999775,,,,,,,,ID:100-1,12.50,5.25,-164.02,0.0,0.0,0.0
114.89999999999775,,,,,,,,ID:100-1,12.50,5.26,-164.02,0.0,0.0,0.0
114.99999999999774,,,,,,,,ID:100-1,12.50,5.26,-164.02,0.0,0.0,0.0
115.09999999999773,,,,,,,,ID:100-1,12.50,5.27,-164.02,0.0,0.0,0.0
115.19999999999773,,,,,,,,ID:100-1,12.51,5.27,-164.02,0.0,-0.001,-0.001
115.29999999999772,,,,,,,,ID:100-1,12.51,5.27,-164.01,0.0,-0.001,-0.001
115.39999999999772,,,,,,,,ID:100-1,12.52,5.27,-164.01,0.0,0.0,0.0
115.49999999999771,,,,,,,,ID:100-1,12.53,5.26,-164.00,0.0,0.0,0.0
115.5999999999977,,,,,,,,ID:100-1,12.54,5.25,-164.00,0.0,0.0,0.0
115.6999999999977,,,,,,,,ID:100-1,12.55,5.24,-163.99,0.0,0.0,0.0
115.7999999999977,,,,,,,,ID:100-1,12.55,5.22,-163.99,0.0,0.0,0.0
115.89999999999769,,,,,,,,ID:100-1,12.55,5.21,-163.98,0.0,0.0,0.0
115.99999999999768,,,,,,,,ID:100-1,12.55,5.19,-163.98,0.0,0.0,0.0
116.09999999999768,,,,,,,,ID:100-1,12.55,5.18,-163.98,0.0,0.0,0.0
116.19999999999767,,,,,,,,ID:100-1,12.55,5.16,-163.98,0.0,0.0,0.0
116.29999999999767,,,,,,,,ID:100-1,12.55,5.15,-163.97,0.0,0.0,0.0
116.39999999999766,,,,,,,,ID:100-1,12.54,5.14,-163.97,0.0,0.0,0.0
116.49999999999766,,,,,,,,ID:100-1,12.54,5.13,-163.97,0.0,0.0,-0.001
116.59999999999765,,,,,,,,ID:100-1,12.55,5.12,-163.97,0.0,-0.001,-0.001
116.69999999999764,,,,,,,,ID:100-1,12.56,5.11,-163.96,0.0,-0.001,-0.002
116.79999999999764,,,,,,,,ID:100-1,12.57,5.09,-163.96,0.0,-0.001,-0.003
116.89999999999763,,,,,,,,ID:100-1,12.58,5.08,-163.95,0.0,0.0,0.0
116.99999999999763,,,,,,,,ID:100-1,12.59,5.06,-163.95,0.0,0.0,0.0
117.09999999999762,,,,,,,,ID:100-1,12.60,5.04,-163.94,0.0,0.0,0.0
117.19999999999762,,,,,,,,ID:100-1,12.62,5.01,-163.94,0.0,0.0,0.0
117.29999999999761,,,,,,,,ID:100-1,12.63,4.99,-163.93,0.0,0.0,0.0
117.3999999999976,,,,,,,,ID:100-1,12.63,4.97,-163.92,0.0,0.0,0.0
117.4999999999976,,,,,,,,ID:100-1,12.64,4.95,-163.92,0.0,0.0,0.0
117.59999999999759,,,,,,,,ID:100-1,12.64,4.93,-163.91,0.0,0.0,0.0
117.69999999999759,,,,,,,,ID:100-1,12.65,4.91,-163.90,0.0,0.0,0.0
117.79999999999758,,,,,,,,ID:100-1,12.65,4.89,-163.90,0.0,0.0,0.0
117.89999999999758,,,,,,,,ID:100-1,12.66,4.87,-163.90,0.0,0.0,-0.001
117.99999999999757,,,,,,,,ID:100-1,12.67,4.86,-163.89,0.001,0.0,-0.001
118.09999999999756,,,,,,,,ID:100-1,12.68,4.85,-163.89,0.001,0.0,-0.002
118.19999999999756,,,,,,,,ID:100-1,12.68,4.85,-163.89,0.002,0.0,-0.003
118.29999999999755,,,,,,,,ID:100-1,12.69,4.84,-163.90,0.0,0.0,0.0
118.39999999999755,,,,,,,,ID:100-1,12.70,4.84,-163.90,0.0,0.0,0.0
118.49999999999754,,,,,,,,ID:100-1,12.71,4.84,-163.90,0.0,0.0,0.0
118.59999999999754,,,,,,,,ID:100-1,12.71,4.83,-163.90,0.0,0.0,0.0
118.69999999999753,,,,,,,,ID:100-1,12.72,4.83,-163.91,0.0,0.0,0.0
118.79999999999752,,,,,,,,ID:100-1,12.72,4.83,-163.91,0.0,0.0,0.0
118.89999999999752,,,,,,,,ID:100-1,12.72,4.83,-163.92,0.0,0.0,0.0
118.99999999999751,,,,,,,,ID:100-1,12.72,4.83,-163.92,0.0,0.0,0.0
119.09999999999751,,,,,,,,ID:100-1,12.72,4.83,-163.92,0.0,0.0,0.0
119.1999999999975,,,,,,,,ID:100-1,12.72,4.84,-163.93,0.0,0.0,0.0
119.2999999999975,,,,,,,,ID:100-1,12.72,4.84,-163.93,0.0,0.0,0.0
119.39999999999749,,,,,,,,ID:100-1,12.72,4.84,-163.93,0.0,0.0,0.0
119.49999999999748,,,,,,,,ID:100-1,12.72,4.85,-163.94,0.0,0.0,-0.001
119.59999999999748,,,,,,,,ID:100-1,12.73,4.85,-163.94,0.0,0.0,-0.001
119.69999999999747,,,,,,,,ID:100-1,12.73,4.85,-163.94,0.0,0.0,-0.002
119.79999999999747,,,,,,,,ID:100-1,12.73,4.85,-163.94,0.0,0.0,-0.003
119.89999999999746,,,,,,,,ID:100-1,12.74,4.85,-163.94,0.0,0.0,0.0
119.99999999999746,,,,,,,,ID:100-1,12.74,4.85,-163.94,0.0,0.0,0.0
120.09999999999745,,,,,,,,ID:100-1,12.75,4.85,-163.94,0.0,0.0,0.0
120.19999999999744,,,,,,,,ID:100-1,12.76,4.84,-163.94,0.0,0.0,0.0
120.29999999999744,,,,,,,,ID:100-1,12.77,4.84,-163.93,0.0,0.0,0.0
120.39999999999743,,,,,,,,ID:100-1,12.78,4.83,-163.93,0.0,0.0,0.0
120.49999999999743,,,,,,,,ID:100-1,12.78,4.83,-163.93,0.0,0.0,0.0
120.59999999999742,,,,,,,,ID:100-1,12.79,4.82,-163.92,0.0,0.0,0.0
120.69999999999742,,,,,,,,ID:100-1,12.80,4.81,-163.92,0.0,0.0,0.0
120.79999999999741,,,,,,,,ID:100-1,12.80,4.81,-163.92,0.0,0.0,0.0
120.8999999999974,,,,,,,,ID:100-1,12.81,4.80,-163.92,0.0,0.0,0.0
120.9999999999974,,,,,,,,ID:100-1,12.81,4.80,-163.91,0.0,0.0,0.0
121.0999999999974,,,,,,,,ID:100-1,12.82,4.80,-163.91,0.0,0.0,0.0
121.19999999999739,,,,,,,,ID:100-1,12.83,4.79,-163.91,0.0,0.0,0.0
121.29999999999738,,,,,,,,ID:100-1,12.83,4.78,-163.90,0.0,0.0,0.0
121.39999999999738,,,,,,,,ID:100-1,12.84,4.78,-163.90,0.0,0.0,0.0
121.49999999999737,,,,,,,,ID:100-1,12.85,4.77,-163.90,0.0,0.0,0.0
121.59999999999737,,,,,,,,ID:100-1,12.85,4.76,-163.90,0.0,0.0,0.0
121.69999999999736,,,,,,,,ID:100-1,12.85,4.75,-163.90,0.0,0.0,0.0
121.79999999999735,,,,,,,,ID:100-1,12.86,4.74,-163.89,0.0,0.0,0.0
121.89999999999735,,,,,,,,ID:100-1,12.86,4.73,-163.89,0.0,0.0,0.0
121.99999999999734,,,,,,,,ID:100-1,12.87,4.72,-163.89,0.0,0.0,0.0
122.09999999999734,,,,,,,,ID:100-1,12.88,4.71,-163.88,0.0,0.0,0.0
122.19999999999733,,,,,,,,ID:100-1,12.89,4.71,-163.88,0.0,0.0,0.0
122.29999999999733,,,,,,,,ID:100-1,12.89,4.70,-163.88,0.0,0.0,0.0
122.39999999999732,,,,,,,,ID:100-1,12.90,4.69,-163.87,0.0,0.0,0.0
122.49999999999731,,,,,,,,ID:100-1,12.91,4.68,-163.87,0.0,0.0,0.0
122.59999999999731,,,,,,,,ID:100-1,12.92,4.67,-163.87,0.0,0.0,0.0
122.6999999999973,,,,,,,,ID:100-1,12.93,4.66,-163.87,0.0,0.0,0.0
122.7999999999973,,,,,,,,ID:100-1,12.93,4.65,-163.86,0.0,0.0,0.0
122.89999999999729,,,,,,,,ID:100-1,12.94,4.63,-163.86,0.0,0.0,0.0
122.99999999999729,,,,,,,,ID:100-1,12.94,4.62,-163.86,0.0,0.0,0.0
123.09999999999728,,,,,,,,ID:100-1,12.95,4.61,-163.86,0.0,0.0,0.0
123.19999999999727,,,,,,,,ID:100-1,12.95,4.60,-163.86,0.0,0.0,0.0
123.29999999999727,,,,,,,,ID:100-1,12.95,4.59,-163.86,0.0,0.0,0.0
123.39999999999726,,,,,,,,ID:100-1,12.96,4.58,-163.86,0.0,0.0,0.0
123.49999999999726,,,,,,,,ID:100-1,12.96,4.58,-163.86,0.0,0.0,0.0
123.59999999999725,,,,,,,,ID:100-1,12.96,4.57,-163.86,0.0,0.0,0.0
123.69999999999725,,,,,,,,ID:100-1,12.95,4.57,-163.86,0.0,0.0,0.0
123.79999999999724,,,,,,,,ID:100-1,12.95,4.57,-163.86,0.0,0.001,0.0
123.89999999999723,,,,,,,,ID:100-1,12.95,4.57,-163.85,0.0,0.001,-0.001
123.99999999999723,,,,,,,,ID:100-1,12.95,4.56,-163.85,0.0,0.002,-0.001
124.09999999999722,,,,,,,,ID:100-1,12.95,4.57,-163.85,0.0,0.0,0.0
124.19999999999722,,,,,,,,ID:100-1,12.95,4.57,-163.85,0.0,0.0,0.0
124.29999999999721,,,,,,,,ID:100-1,12.95,4.57,-163.85,0.0,0.0,0.0
124.3999999999972,,,,,,,,ID:100-1,12.95,4.57,-163.85,0.0,0.0,0.0
124.4999999999972,,,,,,,,ID:100-1,12.95,4.57,-163.84,0.0,0.0,0.0
124.5999999999972,,,,,,,,ID:100-1,12.96,4.57,-163.84,0.0,0.0,0.0
124.69999999999719,,,,,,,,ID:100-1,12.96,4.57,-163.84,0.0,0.0,0.0
124.79999999999718,,,,,,,,ID:100-1,12.96,4.56,-163.84,0.0,0.0,0.0
124.89999999999718,,,,,,,,ID:100-1,12.97,4.56,-163.84,0.0,0.0,0.0
124.99999999999717,,,,,,,,ID:100-1,12.97,4.56,-163.84,0.0,0.0,0.0
125.09999999999717,,,,,,,,ID:100-1,12.98,4.56,-163.84,0.0,0.0,0.0
125.19999999999716,,,,,,,,ID:100-1,12.98,4.55,-163.84,0.0,0.0,0.0
125.29999999999715,,,,,,,,ID:100-1,12.99,4.55,-163.83,0.0,0.0,0.0
125.39999999999715,,,,,,,,ID:100-1,12.99,4.55,-163.83,0.0,0.0,0.0
125.49999999999714,,,,,,,,ID:100-1,13.00,4.55,-163.83,0.0,0.0,0.0
125.59999999999714,,,,,,,,ID:100-1,13.00,4.55,-163.83,0.0,0.0,0.0
125.69999999999713,,,,,,,,ID:100-1,13.01,4.55,-163.83,0.0,0.0,0.0
125.79999999999713,,,,,,,,ID:100-1,13.01,4.55,-163.83,0.0,0.0,0.0
125.89999999999712,,,,,,,,ID:100-1,13.01,4.55,-163.83,0.0,0.0,0.0
125.99999999999712,,,,,,,,ID:100-1,13.02,4.55,-163.83,0.0,0.0,0.0
126.09999999999711,,,,,,,,ID:100-1,13.02,4.55,-163.83,0.0,0.0,0.0
126.1999999999971,,,,,,,,ID:100-1,13.03,4.56,-163.83,0.0,0.0,0.0
126.2999999999971,,,,,,,,ID:100-1,13.04,4.55,-163.83,0.0,0.0,0.0
126.39999999999709,,,,,,,,ID:100-1,13.05,4.55,-163.83,0.0,0.0,0.0
126.49999999999709,,,,,,,,ID:100-1,13.06,4.55,-163.83,0.0,0.0,0.0
126.59999999999708,,,,,,,,ID:100-1,13.07,4.54,-163.83,0.0,0.0,0.0
126.69999999999708,,,,,,,,ID:100-1,13.08,4.54,-163.83,0.0,0.0,0.0
126.79999999999707,,,,,,,,ID:100-1,13.10,4.53,-163.83,0.0,0.0,0.0
126.89999999999706,,,,,,,,ID:100-1,13.11,4.53,-163.83,0.0,0.0,0.0
126.99999999999706,,,,,,,,ID:100-1,13.12,4.52,-163.83,0.0,0.0,0.0
127.09999999999705,,,,,,,,ID:100-1,13.13,4.51,-163.83,0.0,0.0,0.0
127.19999999999705,,,,,,,,ID:100-1,13.14,4.51,-163.83,0.0,0.0,0.0
127.29999999999704,,,,,,,,ID:100-1,13.15,4.50,-163.83,0.0,0.0,0.0
127.39999999999704,,,,,,,,ID:100-1,13.17,4.49,-163.82,0.0,0.0,0.0
127.49999999999703,,,,,,,,ID:100-1,13.18,4.48,-163.82,0.0,0.0,0.0
127.59999999999702,,,,,,,,ID:100-1,13.19,4.48,-163.82,0.0,0.0,0.0
127.69999999999702,,,,,,,,ID:100-1,13.20,4.47,-163.82,0.0,0.0,0.0
127.79999999999701,,,,,,,,ID:100-1,13.21,4.46,-163.82,0.0,0.0,0.0
127.89999999999701,,,,,,,,ID:100-1,13.23,4.45,-163.81,0.0,0.0,0.0
127.999999999997,,,,,,,,ID:100-1,13.24,4.45,-163.81,0.0,0.0,0.0
128.099999999997,,,,,,,,ID:100-1,13.25,4.44,-163.81,0.0,0.0,0.0
128.199999999997,,,,,,,,ID:100-1,13.27,4.44,-163.81,0.0,0.0,0.0
128.299999999997,,,,,,,,ID:100-1,13.28,4.43,-163.81,0.0,0.0,0.0
128.399999999997,,,,,,,,ID:100-1,13.29,4.43,-163.81,0.0,0.0,0.0
128.499999999997,,,,,,,,ID:100-1,13.30,4.42,-163.80,0.0,0.0,0.0
128.59999999999698,,,,,,,,ID:100-1,13.31,4.41,-163.80,0.0,0.0,0.0
128.69999999999698,,,,,,,,ID:100-1,13.32,4.40,-163.80,0.0,0.0,0.0
128.79999999999697,,,,,,,,ID:100-1,13.33,4.39,-163.79,0.0,0.0,0.001
128.89999999999696,,,,,,,,ID:100-1,13.34,4.38,-163.79,0.0,0.0,0.001
128.99999999999696,,,,,,,,ID:100-1,13.35,4.37,-163.78,0.0,0.0,0.0
129.09999999999695,,,,,,,,ID:100-1,13.35,4.36,-163.78,0.0,0.0,0.0
129.19999999999695,,,,,,,,ID:100-1,13.36,4.35,-163.78,0.0,0.0,0.0
129.29999999999694,,,,,,,,ID:100-1,13.37,4.34,-163.78,0.0,0.0,0.0
129.39999999999694,,,,,,,,ID:100-1,13.37,4.32,-163.78,0.0,0.0,0.0
129.49999999999693,,,,,,,,ID:100-1,13.37,4.30,-163.78,0.0,0.0,0.0
129.59999999999692,,,,,,,,ID:100-1,13.37,4.29,-163.77,0.0,0.0,0.0
129.69999999999692,,,,,,,,ID:100-1,13.37,4.27,-163.77,0.0,0.0,0.0
129.7999999999969,,,,,,,,ID:100-1,13.37,4.26,-163.77,0.0,0.0,0.0
129.8999999999969,,,,,,,,ID:100-1,13.36,4.25,-163.76,0.0,0.0,0.0
129.9999999999969,,,,,,,,ID:100-1,13.36,4.24,-163.76,0.0,0.0,0.0
130.0999999999969,,,,,,,,ID:100-1,13.36,4.23,-163.76,0.0,0.0,0.0
130.1999999999969,,,,,,,,ID:100-1,13.36,4.23,-163.75,0.0,0.0,0.0
130.29999999999688,,,,,,,,ID:100-1,13.36,4.23,-163.75,0.0,0.0,0.0
130.39999999999688,,,,,,,,ID:100-1,13.36,4.23,-163.75,0.0,0.0,0.0
130.49999999999687,,,,,,,,ID:100-1,13.36,4.23,-163.75,0.0,0.0,0.0
130.59999999999687,,,,,,,,ID:100-1,13.36,4.22,-163.75,0.0,0.0,0.0
130.69999999999686,,,,,,,,ID:100-1,13.36,4.22,-163.74,0.0,0.0,0.0
130.79999999999686,,,,,,,,ID:100-1,13.36,4.22,-163.74,0.0,0.0,0.0
130.89999999999685,,,,,,,,ID:100-1,13.35,4.21,-163.74,0.0,0.0,0.0
130.99999999999685,,,,,,,,ID:100-1,13.35,4.21,-163.74,0.0,0.0,0.0
131.09999999999684,,,,,,,,ID:100-1,13.34,4.21,-163.74,0.0,0.0,0.0
131.19999999999683,,,,,,,,ID:100-1,13.34,4.20,-163.74,0.0,0.0,0.0
131.29999999999683,,,,,,,,ID:100-1,13.33,4.20,-163.74,0.0,0.0,0.0
131.39999999999682,,,,,,,,ID:100-1,13.33,4.19,-163.74,0.0,0.0,0.0
131.49999999999682,,,,,,,,ID:100-1,13.33,4.19,-163.75,0.0,0.0,0.0
131.5999999999968,,,,,,,,ID:100-1,13.32,4.18,-163.75,0.0,0.0,0.0
131.6999999999968,,,,,,,,ID:100-1,13.32,4.17,-163.75,0.0,0.0,0.0
131.7999999999968,,,,,,,,ID:100-1,13.32,4.16,-163.75,0.0,0.0,0.0
131.8999999999968,,,,,,,,ID:100-1,13.32,4.15,-163.75,0.0,0.0,0.0
131.9999999999968,,,,,,,,ID:100-1,13.32,4.14,-163.76,0.0,0.0,0.0
132.09999999999678,,,,,,,,ID:100-1,13.32,4.13,-163.76,0.0,0.0,0.0
132.19999999999678,,,,,,,,ID:100-1,13.32,4.12,-163.76,0.0,0.0,0.0
132.29999999999677,,,,,,,,ID:100-1,13.32,4.11,-163.76,0.0,0.0,0.0
132.39999999999677,,,,,,,,ID:100-1,13.32,4.10,-163.77,0.0,0.0,0.0
132.49999999999676,,,,,,,,ID:100-1,13.32,4.09,-163.77,0.0,0.0,0.0
132.59999999999675,,,,,,,,ID:100-1,13.32,4.08,-163.77,0.0,0.0,0.0
132.69999999999675,,,,,,,,ID:100-1,13.32,4.07,-163.77,0.0,0.0,0.0
132.79999999999674,,,,,,,,ID:100-1,13.32,4.06,-163.78,0.0,0.0,0.0
132.89999999999674,,,,,,,,ID:100-1,13.32,4.05,-163.78,0.0,0.0,0.0
132.99999999999673,,,,,,,,ID:100-1,13.32,4.04,-163.79,0.0,0.0,0.0
133.09999999999673,,,,,,,,ID:100-1,13.32,4.04,-163.79,0.0,0.0,0.0
133.19999999999672,,,,,,,,ID:100-1,13.32,4.03,-163.80,0.0,0.0,0.0
133.29999999999671,,,,,,,,ID:100-1,13.32,4.02,-163.80,0.0,0.0,0.0
133.3999999999967,,,,,,,,ID:100-1,13.32,4.01,-163.80,0.0,0.0,0.0
133.4999999999967,,,,,,,,ID:100-1,13.32,4.00,-163.81,0.0,0.0,0.0
133.5999999999967,,,,,,,,ID:100-1,13.32,4.00,-163.81,0.0,0.0,0.0
133.6999999999967,,,,,,,,ID:100-1,13.32,3.99,-163.82,0.0,0.0,0.0
133.7999999999967,,,,,,,,ID:100-1,13.32,3.98,-163.82,0.0,0.0,0.0
133.89999999999668,,,,,,,,ID:100-1,13.32,3.98,-163.83,0.0,0.0,0.0
133.99999999999667,,,,,,,,ID:100-1,13.32,3.97,-163.83,0.0,0.0,0.0
134.09999999999667,,,,,,,,ID:100-1,13.32,3.97,-163.83,0.0,0.0,0.0
134.19999999999666,,,,,,,,ID:100-1,13.32,3.97,-163.84,0.0,0.0,0.0
134.29999999999666,,,,,,,,ID:100-1,13.32,3.96,-163.84,0.0,0.0,0.0
134.39999999999665,,,,,,,,ID:100-1,13.32,3.96,-163.84,0.0,0.0,0.0
134.49999999999665,,,,,,,,ID:100-1,13.33,3.95,-163.84,0.0,0.0,0.0
134.59999999999664,,,,,,,,ID:100-1,13.33,3.95,-163.85,0.0,0.0,0.0
134.69999999999663,,,,,,,,ID:100-1,13.33,3.95,-163.85,0.0,0.0,0.0
134.79999999999663,,,,,,,,ID:100-1,13.33,3.94,-163.85,0.0,0.0,0.0
134.89999999999662,,,,,,,,ID:100-1,13.33,3.93,-163.85,0.0,0.0,0.0
134.99999999999662,,,,,,,,ID:100-1,13.33,3.93,-163.85,0.0,0.0,0.0
135.0999999999966,,,,,,,,ID:100-1,13.33,3.92,-163.85,0.0,0.0,0.0
135.1999999999966,,,,,,,,ID:100-1,13.33,3.91,-163.86,0.0,0.0,0.0
135.2999999999966,,,,,,,,ID:100-1,13.33,3.91,-163.86,0.0,0.0,0.0
135.3999999999966,,,,,,,,ID:100-1,13.33,3.90,-163.86,0.0,0.0,0.0
135.4999999999966,,,,,,,,ID:100-1,13.32,3.90,-163.86,0.0,0.0,0.0
135.59999999999658,,,,,,,,ID:100-1,13.32,3.90,-163.87,0.0,0.0,0.0
135.69999999999658,,,,,,,,ID:100-1,13.32,3.89,-163.87,0.0,0.0,0.0
135.79999999999657,,,,,,,,ID:100-1,13.32,3.89,-163.87,0.0,0.0,0.0
135.89999999999657,,,,,,,,ID:100-1,13.32,3.89,-163.87,0.0,0.0,0.0
135.99999999999656,,,,,,,,ID:100-1,13.32,3.89,-163.88,0.0,0.0,0.0
136.09999999999656,,,,,,,,ID:100-1,13.32,3.89,-163.88,0.0,0.0,0.0
136.19999999999655,,,,,,,,ID:100-1,13.33,3.89,-163.88,0.0,0.0,0.0
136.29999999999654,,,,,,,,ID:100-1,13.33,3.89,-163.89,0.0,0.0,0.0
136.39999999999654,,,,,,,,ID:100-1,13.33,3.89,-163.90,0.0,0.0,0.0
136.49999999999653,,,,,,,,ID:100-1,13.34,3.88,-163.90,0.0,0.0,0.0
136.59999999999653,,,,,,,,ID:100-1,13.35,3.88,-163.91,0.0,0.0,0.0
136.69999999999652,,,,,,,,ID:100-1,13.36,3.88,-163.91,0.0,0.0,0.0
136.79999999999652,,,,,,,,ID:100-1,13.36,3.87,-163.92,0.0,0.0,0.0
136.8999999999965,,,,,,,,ID:100-1,13.37,3.87,-163.92,0.0,0.0,0.0
136.9999999999965,,,,,,,,ID:100-1,13.38,3.87,-163.92,0.0,0.0,0.0
137.0999999999965,,,,,,,,ID:100-1,13.39,3.86,-163.93,0.0,0.0,0.0
137.1999999999965,,,,,,,,ID:100-1,13.39,3.86,-163.93,0.0,0.0,0.0
137.2999999999965,,,,,,,,ID:100-1,13.40,3.85,-163.94,0.0,0.0,0.0
137.39999999999648,,,,,,,,ID:100-1,13.41,3.85,-163.94,0.0,0.0,0.0
137.49999999999648,,,,,,,,ID:100-1,13.41,3.85,-163.94,0.0,0.0,0.0
137.59999999999647,,,,,,,,ID:100-1,13.42,3.84,-163.95,0.0,0.0,0.0
137.69999999999646,,,,,,,,ID:100-1,13.42,3.84,-163.95,0.0,0.0,0.0
137.79999999999646,,,,,,,,ID:100-1,13.42,3.84,-163.96,0.0,0.0,0.0
137.89999999999645,,,,,,,,ID:100-1,13.43,3.83,-163.96,0.0,0.0,0.0
137.99999999999645,,,,,,,,ID:100-1,13.43,3.83,-163.96,0.0,0.0,0.0
138.09999999999644,,,,,,,,ID:100-1,13.43,3.82,-163.96,0.0,0.0,0.0
138.19999999999644,,,,,,,,ID:100-1,13.43,3.82,-163.96,0.0,0.0,0.0
138.29999999999643,,,,,,,,ID:100-1,13.43,3.81,-163.97,0.0,0.0,0.0
138.39999999999642,,,,,,,,ID:100-1,13.43,3.81,-163.97,0.0,0.0,0.0
138.49999999999642,,,,,,,,ID:100-1,13.44,3.81,-163.97,0.0,0.0,0.0
138.5999999999964,,,,,,,,ID:100-1,13.44,3.80,-163.97,0.0,0.0,0.0
138.6999999999964,,,,,,,,ID:100-1,13.44,3.80,-163.97,0.0,0.0,0.0
138.7999999999964,,,,,,,,ID:100-1,13.45,3.79,-163.97,0.0,0.0,0.0
138.8999999999964,,,,,,,,ID:100-1,13.45,3.79,-163.97,0.0,0.0,0.0
138.9999999999964,,,,,,,,ID:100-1,13.45,3.78,-163.97,0.0,0.0,0.0
139.09999999999638,,,,,,,,ID:100-1,13.46,3.78,-163.98,0.0,0.0,0.0
139.19999999999638,,,,,,,,ID:100-1,13.46,3.78,-163.98,0.0,0.0,0.0
139.29999999999637,,,,,,,,ID:100-1,13.46,3.78,-163.98,0.0,0.0,0.0
139.39999999999637,,,,,,,,ID:100-1,13.47,3.78,-163.98,0.0,0.0,0.0
139.49999999999636,,,,,,,,ID:100-1,13.47,3.78,-163.98,0.0,0.0,0.0
139.59999999999636,,,,,,,,ID:100-1,13.48,3.78,-163.98,0.0,0.0,0.0
139.69999999999635,,,,,,,,ID:100-1,13.49,3.78,-163.99,0.0,0.0,0.0
139.79999999999634,,,,,,,,ID:100-1,13.49,3.78,-163.99,0.0,0.0,0.0
139.89999999999634,,,,,,,,ID:100-1,13.49,3.78,-163.99,0.0,0.0,0.0
139.99999999999633,,,,,,,,ID:100-1,13.49,3.78,-163.99,0.0,0.0,0.0
140.09999999999633,,,,,,,,ID:100-1,13.49,3.77,-163.99,0.0,0.0,0.0
140.19999999999632,,,,,,,,ID:100-1,13.49,3.77,-164.00,0.0,0.0,0.0
140.29999999999632,,,,,,,,ID:100-1,13.50,3.77,-164.00,0.0,0.0,0.0
140.3999999999963,,,,,,,,ID:100-1,13.50,3.76,-164.00,0.0,0.0,0.0
140.4999999999963,,,,,,,,ID:100-1,13.51,3.76,-164.01,0.0,0.0,0.0
140.5999999999963,,,,,,,,ID:100-1,13.51,3.75,-164.01,0.0,0.0,0.0
140.6999999999963,,,,,,,,ID:100-1,13.52,3.75,-164.01,0.0,0.0,0.0
140.7999999999963,,,,,,,,ID:100-1,13.52,3.74,-164.01,0.0,0.0,0.0
140.89999999999628,,,,,,,,ID:100-1,13.53,3.73,-164.02,0.0,0.0,0.0
140.99999999999628,,,,,,,,ID:100-1,13.54,3.73,-164.02,0.0,0.0,0.0
141.09999999999627,,,,,,,,ID:100-1,13.54,3.72,-164.02,0.0,0.0,0.0
141.19999999999627,,,,,,,,ID:100-1,13.55,3.72,-164.02,0.0,0.0,0.0
141.29999999999626,,,,,,,,ID:100-1,13.55,3.71,-164.02,0.0,0.0,0.0
141.39999999999625,,,,,,,,ID:100-1,13.56,3.71,-164.02,0.0,0.0,0.0
141.49999999999625,,,,,,,,ID:100-1,13.56,3.70,-164.02,0.0,0.0,0.0
141.59999999999624,,,,,,,,ID:100-1,13.57,3.70,-164.02,0.0,0.0,0.0
141.69999999999624,,,,,,,,ID:100-1,13.57,3.69,-164.02,0.0,0.0,0.0
141.79999999999623,,,,,,,,ID:100-1,13.58,3.69,-164.02,0.0,0.0,0.0
141.89999999999623,,,,,,,,ID:100-1,13.58,3.68,-164.02,0.0,0.0,0.0
141.99999999999622,,,,,,,,ID:100-1,13.59,3.68,-164.02,0.0,0.0,0.0
142.09999999999621,,,,,,,,ID:100-1,13.59,3.67,-164.02,0.0,0.0,0.0
142.1999999999962,,,,,,,,ID:100-1,13.60,3.67,-164.02,0.0,0.0,0.0
142.2999999999962,,,,,,,,ID:100-1,13.60,3.67,-164.02,0.0,0.0,0.0
142.3999999999962,,,,,,,,ID:100-1,13.60,3.66,-164.02,0.0,0.0,0.0
142.4999999999962,,,,,,,,ID:100-1,13.60,3.66,-164.02,0.0,0.0,0.0
142.5999999999962,,,,,,,,ID:100-1,13.61,3.65,-164.02,0.0,0.0,0.0
142.69999999999618,,,,,,,,ID:100-1,13.61,3.65,-164.02,0.0,0.0,0.0
142.79999999999617,,,,,,,,ID:100-1,13.62,3.64,-164.02,0.0,0.0,0.0
142.89999999999617,,,,,,,,ID:100-1,13.62,3.63,-164.02,0.0,0.0,0.0
142.99999999999616,,,,,,,,ID:100-1,13.62,3.63,-164.02,0.0,0.0,0.0
143.09999999999616,,,,,,,,ID:100-1,13.63,3.62,-164.02,0.0,0.0,0.0
143.19999999999615,,,,,,,,ID:100-1,13.63,3.61,-164.02,0.0,0.0,0.0
143.29999999999615,,,,,,,,ID:100-1,13.63,3.60,-164.02,0.0,0.0,0.0
143.39999999999614,,,,,,,,ID:100-1,13.63,3.59,-164.02,0.0,0.0,0.0
143.49999999999613,,,,,,,,ID:100-1,13.63,3.58,-164.02,0.0,0.0,0.0
143.59999999999613,,,,,,,,ID:100-1,13.63,3.57,-164.02,0.0,0.0,0.0
143.69999999999612,,,,,,,,ID:100-1,13.62,3.56,-164.01,0.0,0.0,0.0
143.79999999999612,,,,,,,,ID:100-1,13.62,3.55,-164.01,0.0,0.0,0.0
143.8999999999961,,,,,,,,ID:100-1,13.61,3.55,-164.01,0.0,0.0,0.0
143.9999999999961,,,,,,,,ID:100-1,13.61,3.54,-164.00,0.0,0.0,0.0
144.0999999999961,,,,,,,,ID:100-1,13.61,3.54,-164.00,0.0,0.0,0.0
144.1999999999961,,,,,,,,ID:100-1,13.61,3.53,-164.00,0.0,0.0,0.0
144.2999999999961,,,,,,,,ID:100-1,13.60,3.53,-164.00,0.0,0.0,0.0
144.39999999999608,,,,,,,,ID:100-1,13.60,3.52,-164.00,0.0,0.0,0.0
144.49999999999608,,,,,,,,ID:100-1,13.60,3.52,-163.99,0.0,0.0,0.0
144.59999999999607,,,,,,,,ID:100-1,13.59,3.52,-163.99,0.0,0.0,0.0
144.69999999999607,,,,,,,,ID:100-1,13.59,3.51,-163.99,0.0,0.0,0.0
144.79999999999606,,,,,,,,ID:100-1,13.58,3.51,-163.99,0.0,0.0,0.0
144.89999999999606,,,,,,,,ID:100-1,13.58,3.51,-163.99,0.0,0.0,0.0
144.99999999999605,,,,,,,,ID:100-1,13.58,3.51,-163.99,0.0,0.0,0.0
145.09999999999604,,,,,,,,ID:100-1,13.57,3.51,-163.99,0.0,0.0,0.0
145.19999999999604,,,,,,,,ID:100-1,13.57,3.50,-163.99,0.0,0.0,0.0
145.29999999999603,,,,,,,,ID:100-1,13.56,3.50,-163.99,0.0,0.0,0.0
145.39999999999603,,,,,,,,ID:100-1,13.56,3.50,-163.99,0.0,0.0,0.0
145.49999999999602,,,,,,,,ID:100-1,13.55,3.50,-163.99,0.0,0.0,0.0
145.59999999999602,,,,,,,,ID:100-1,13.55,3.50,-163.99,0.0,0.0,0.0
145.699999999996,,,,,,,,ID:100-1,13.55,3.49,-164.00,0.0,0.0,0.0
145.799999999996,,,,,,,,ID:100-1,13.54,3.49,-164.00,0.0,0.0,0.0
145.899999999996,,,,,,,,ID:100-1,13.54,3.49,-164.00,0.0,0.0,0.0
145.999999999996,,,,,,,,ID:100-1,13.54,3.49,-164.00,0.0,0.0,0.0
146.099999999996,,,,,,,,ID:100-1,13.54,3.49,-164.00,0.0,0.0,0.0
146.19999999999598,,,,,,,,ID:100-1,13.54,3.49,-164.01,0.0,0.0,0.0
146.29999999999598,,,,,,,,ID:100-1,13.54,3.49,-164.01,0.0,0.0,0.0
146.39999999999597,,,,,,,,ID:100-1,13.54,3.49,-164.01,0.0,0.0,0.0
146.49999999999596,,,,,,,,ID:100-1,13.54,3.49,-164.02,0.0,0.0,0.0
146.59999999999596,,,,,,,,ID:100-1,13.54,3.48,-164.02,0.0,0.0,0.0
146.69999999999595,,,,,,,,ID:100-1,13.54,3.48,-164.02,0.0,0.0,0.0
146.79999999999595,,,,,,,,ID:100-1,13.54,3.48,-164.03,0.0,0.0,0.0
146.89999999999594,,,,,,,,ID:100-1,13.54,3.47,-164.03,0.0,0.0,0.0
146.99999999999594,,,,,,,,ID:100-1,13.54,3.47,-164.03,0.0,0.0,0.0
147.09999999999593,,,,,,,,ID:100-1,13.54,3.46,-164.04,0.0,0.0,0.0
147.19999999999592,,,,,,,,ID:100-1,13.54,3.45,-164.04,0.0,0.0,0.0
147.29999999999592,,,,,,,,ID:100-1,13.54,3.45,-164.04,0.0,0.0,0.0
147.3999999999959,,,,,,,,ID:100-1,13.54,3.44,-164.05,0.0,0.0,0.0
147.4999999999959,,,,,,,,ID:100-1,13.54,3.44,-164.05,0.0,0.0,0.0
147.5999999999959,,,,,,,,ID:100-1,13.54,3.43,-164.05,0.0,0.0,0.0
147.6999999999959,,,,,,,,ID:100-1,13.54,3.43,-164.06,0.0,0.0,0.0
147.7999999999959,,,,,,,,ID:100-1,13.54,3.43,-164.06,0.0,0.0,0.0
147.89999999999588,,,,,,,,ID:100-1,13.54,3.43,-164.06,0.0,0.0,0.0
147.99999999999588,,,,,,,,ID:100-1,13.54,3.43,-164.07,0.0,0.0,0.0
148.09999999999587,,,,,,,,ID:100-1,13.54,3.43,-164.07,0.0,0.0,0.0
148.19999999999587,,,,,,,,ID:100-1,13.54,3.43,-164.07,0.0,0.0,0.0
148.29999999999586,,,,,,,,ID:100-1,13.53,3.43,-164.07,0.0,0.0,0.0
148.39999999999586,,,,,,,,ID:100-1,13.53,3.43,-164.07,0.0,0.0,0.0
148.49999999999585,,,,,,,,ID:100-1,13.53,3.43,-164.07,0.0,0.0,0.0
148.59999999999584,,,,,,,,ID:100-1,13.53,3.43,-164.08,0.0,0.0,0.0
148.69999999999584,,,,,,,,ID:100-1,13.53,3.43,-164.08,0.0,0.0,0.0
148.79999999999583,,,,,,,,ID:100-1,13.52,3.43,-164.08,0.0,0.0,0.0
148.89999999999583,,,,,,,,ID:100-1,13.52,3.43,-164.08,0.0,0.0,0.0
148.99999999999582,,,,,,,,ID:100-1,13.52,3.43,-164.08,0.0,0.0,0.0
149.09999999999582,,,,,,,,ID:100-1,13.51,3.43,-164.08,0.0,0.0,0.0
149.1999999999958,,,,,,,,ID:100-1,13.51,3.43,-164.08,0.0,0.0,0.0
149.2999999999958,,,,,,,,ID:100-1,13.50,3.43,-164.08,0.0,0.0,0.0
149.3999999999958,,,,,,,,ID:100-1,13.50,3.43,-164.08,0.0,0.0,0.0
149.4999999999958,,,,,,,,ID:100-1,13.50,3.42,-164.08,0.0,0.0,0.0
149.5999999999958,,,,,,,,ID:100-1,13.49,3.42,-164.08,0.0,0.0,0.0
149.69999999999578,,,,,,,,ID:100-1,13.49,3.42,-164.08,0.0,0.0,0.0
149.79999999999578,,,,,,,,ID:100-1,13.49,3.42,-164.08,0.0,0.0,0.0
149.89999999999577,,,,,,,,ID:100-1,13.49,3.42,-164.08,0.0,0.0,0.0
149.99999999999577,,,,,,,,ID:100-1,13.49,3.42,-164.08,0.0,0.0,0.0
150.09999999999576,,,,,,,,ID:100-1,13.48,3.42,-164.08,0.0,0.0,0.0
150.19999999999575,,,,,,,,ID:100-1,13.48,3.42,-164.08,0.0,0.0,0.0
150.29999999999575,,,,,,,,ID:100-1,13.48,3.43,-164.08,0.0,0.0,0.0
150.39999999999574,,,,,,,,ID:100-1,13.48,3.43,-164.08,0.0,0.0,0.0
150.49999999999574,,,,,,,,ID:100-1,13.48,3.43,-164.08,0.0,0.0,0.0
150.59999999999573,,,,,,,,ID:100-1,13.47,3.43,-164.08,0.0,0.0,0.0
150.69999999999573,,,,,,,,ID:100-1,13.47,3.43,-164.09,0.0,0.0,0.0
150.79999999999572,,,,,,,,ID:100-1,13.47,3.43,-164.09,0.0,0.0,0.0
150.8999999999957,,,,,,,,ID:100-1,13.46,3.43,-164.09,0.0,0.0,0.0
150.9999999999957,,,,,,,,ID:100-1,13.46,3.43,-164.09,0.0,0.0,0.0
151.0999999999957,,,,,,,,ID:100-1,13.45,3.43,-164.09,0.0,0.0,0.0
151.1999999999957,,,,,,,,ID:100-1,13.45,3.43,-164.09,0.0,0.0,0.0
151.2999999999957,,,,,,,,ID:100-1,13.44,3.43,-164.09,0.0,0.0,0.0
151.39999999999569,,,,,,,,ID:100-1,13.44,3.43,-164.09,0.0,0.0,0.0
151.49999999999568,,,,,,,,ID:100-1,13.44,3.43,-164.09,0.0,0.0,0.0
151.59999999999567,,,,,,,,ID:100-1,13.44,3.43,-164.09,0.0,0.0,0.0
151.69999999999567,,,,,,,,ID:100-1,13.44,3.43,-164.10,0.0,0.0,0.0
151.79999999999566,,,,,,,,ID:100-1,13.44,3.43,-164.10,0.0,0.0,0.0
151.89999999999566,,,,,,,,ID:100-1,13.44,3.42,-164.10,0.0,0.0,0.0
151.99999999999565,,,,,,,,ID:100-1,13.44,3.42,-164.10,0.0,0.0,0.0
152.09999999999565,,,,,,,,ID:100-1,13.44,3.42,-164.10,0.0,0.0,0.0
152.19999999999564,,,,,,,,ID:100-1,13.44,3.42,-164.10,0.0,0.0,0.0
152.29999999999563,,,,,,,,ID:100-1,13.44,3.43,-164.11,0.0,0.0,0.0
152.39999999999563,,,,,,,,ID:100-1,13.44,3.43,-164.11,0.0,0.0,0.0
152.49999999999562,,,,,,,,ID:100-1,13.45,3.43,-164.11,0.0,0.0,0.0
152.59999999999562,,,,,,,,ID:100-1,13.45,3.44,-164.11,0.0,0.0,0.0
152.6999999999956,,,,,,,,ID:100-1,13.45,3.44,-164.12,0.0,0.0,0.0
152.7999999999956,,,,,,,,ID:100-1,13.45,3.44,-164.12,0.0,0.0,0.0
152.8999999999956,,,,,,,,ID:100-1,13.45,3.44,-164.12,0.0,0.0,0.0
152.9999999999956,,,,,,,,ID:100-1,13.45,3.44,-164.12,0.0,0.0,0.0
153.0999999999956,,,,,,,,ID:100-1,13.45,3.43,-164.12,0.0,0.0,0.0
153.19999999999558,,,,,,,,ID:100-1,13.45,3.43,-164.12,0.0,0.0,0.0
153.29999999999558,,,,,,,,ID:100-1,13.45,3.43,-164.12,0.0,0.0,0.0
153.39999999999557,,,,,,,,ID:100-1,13.45,3.42,-164.12,0.0,0.0,0.0
153.49999999999557,,,,,,,,ID:100-1,13.44,3.42,-164.12,0.0,0.0,0.0
153.59999999999556,,,,,,,,ID:100-1,13.44,3.42,-164.12,0.0,0.0,0.0
153.69999999999555,,,,,,,,ID:100-1,13.44,3.42,-164.12,0.0,0.0,0.0
153.79999999999555,,,,,,,,ID:100-1,13.44,3.42,-164.12,0.0,0.0,0.0
153.89999999999554,,,,,,,,ID:100-1,13.44,3.42,-164.12,0.0,0.0,0.0
153.99999999999554,,,,,,,,ID:100-1,13.43,3.42,-164.11,0.0,0.0,0.0
154.09999999999553,,,,,,,,ID:100-1,13.43,3.42,-164.11,0.0,0.0,0.0
154.19999999999553,,,,,,,,ID:100-1,13.43,3.41,-164.11,0.0,0.0,0.0
154.29999999999552,,,,,,,,ID:100-1,13.43,3.41,-164.11,0.0,0.0,0.0
154.39999999999552,,,,,,,,ID:100-1,13.43,3.41,-164.11,0.0,0.0,0.0
154.4999999999955,,,,,,,,ID:100-1,13.42,3.40,-164.10,0.0,0.0,0.0
154.5999999999955,,,,,,,,ID:100-1,13.42,3.40,-164.10,0.0,0.0,0.0
154.6999999999955,,,,,,,,ID:100-1,13.42,3.40,-164.10,0.0,0.0,0.0
154.7999999999955,,,,,,,,ID:100-1,13.42,3.40,-164.10,0.0,0.0,0.0
154.8999999999955,,,,,,,,ID:100-1,13.42,3.39,-164.10,0.0,0.0,0.0
154.99999999999548,,,,,,,,ID:100-1,13.42,3.39,-164.10,0.0,0.0,0.0
155.09999999999548,,,,,,,,ID:100-1,13.41,3.39,-164.11,0.0,0.0,0.0
155.19999999999547,,,,,,,,ID:100-1,13.41,3.39,-164.11,0.0,0.0,0.0
155.29999999999546,,,,,,,,ID:100-1,13.41,3.39,-164.11,0.0,0.0,0.0
155.39999999999546,,,,,,,,ID:100-1,13.41,3.39,-164.11,0.0,0.0,0.0
155.49999999999545,,,,,,,,ID:100-1,13.41,3.39,-164.11,0.0,0.0,0.0
155.59999999999545,,,,,,,,ID:100-1,13.41,3.39,-164.12,0.0,0.0,0.0
155.69999999999544,,,,,,,,ID:100-1,13.41,3.39,-164.12,0.0,0.0,0.0
155.79999999999544,,,,,,,,ID:100-1,13.42,3.39,-164.12,0.0,0.0,0.0
155.89999999999543,,,,,,,,ID:100-1,13.42,3.39,-164.12,0.0,0.0,0.0
155.99999999999542,,,,,,,,ID:100-1,13.42,3.39,-164.13,0.0,0.0,0.0
156.09999999999542,,,,,,,,ID:100-1,13.42,3.38,-164.13,0.0,0.0,0.0
156.1999999999954,,,,,,,,ID:100-1,13.42,3.38,-164.13,0.0,0.0,0.0
156.2999999999954,,,,,,,,ID:100-1,13.41,3.38,-164.13,0.0,0.0,0.0
156.3999999999954,,,,,,,,ID:100-1,13.41,3.37,-164.14,0.0,0.0,0.0
156.4999999999954,,,,,,,,ID:100-1,13.40,3.37,-164.14,0.0,0.0,0.0
156.5999999999954,,,,,,,,ID:100-1,13.39,3.36,-164.14,0.0,0.0,0.0
156.69999999999538,,,,,,,,ID:100-1,13.39,3.36,-164.15,0.0,0.0,0.0
156.79999999999538,,,,,,,,ID:100-1,13.38,3.35,-164.15,0.0,0.0,0.0
156.89999999999537,,,,,,,,ID:100-1,13.37,3.34,-164.15,0.0,0.0,0.0
156.99999999999537,,,,,,,,ID:100-1,13.36,3.33,-164.16,0.0,0.0,0.0
157.09999999999536,,,,,,,,ID:100-1,13.36,3.33,-164.16,0.0,0.0,0.0
157.19999999999536,,,,,,,,ID:100-1,13.35,3.32,-164.16,0.0,0.0,0.0
157.29999999999535,,,,,,,,ID:100-1,13.35,3.31,-164.17,0.0,0.0,0.0
157.39999999999534,,,,,,,,ID:100-1,13.34,3.31,-164.17,0.0,0.0,0.0
157.49999999999534,,,,,,,,ID:100-1,13.34,3.31,-164.18,0.0,0.0,0.0
157.59999999999533,,,,,,,,ID:100-1,13.33,3.30,-164.18,0.0,0.0,0.0
157.69999999999533,,,,,,,,ID:100-1,13.33,3.30,-164.19,0.0,0.0,0.0
157.79999999999532,,,,,,,,ID:100-1,13.33,3.30,-164.19,0.0,0.0,0.0
157.89999999999532,,,,,,,,ID:100-1,13.33,3.29,-164.20,0.0,0.0,0.0
157.9999999999953,,,,,,,,ID:100-1,13.32,3.29,-164.20,0.0,0.0,0.0
158.0999999999953,,,,,,,,ID:100-1,13.32,3.29,-164.20,0.0,0.0,0.0
158.1999999999953,,,,,,,,ID:100-1,13.31,3.28,-164.21,0.0,0.0,0.0
158.2999999999953,,,,,,,,ID:100-1,13.31,3.28,-164.21,0.0,0.0,0.0
158.3999999999953,,,,,,,,ID:100-1,13.30,3.27,-164.22,0.0,0.0,0.0
158.49999999999528,,,,,,,,ID:100-1,13.29,3.27,-164.22,0.0,0.0,0.0
158.59999999999528,,,,,,,,ID:100-1,13.28,3.27,-164.22,0.0,0.0,0.0
158.69999999999527,,,,,,,,ID:100-1,13.28,3.26,-164.23,0.0,0.0,0.0
158.79999999999526,,,,,,,,ID:100-1,13.27,3.26,-164.23,0.0,0.0,0.0
158.89999999999526,,,,,,,,ID:100-1,13.27,3.26,-164.24,0.0,0.0,0.0
158.99999999999525,,,,,,,,ID:100-1,13.26,3.26,-164.24,0.0,0.0,0.0
159.09999999999525,,,,,,,,ID:100-1,13.26,3.26,-164.24,0.0,0.0,0.0
159.19999999999524,,,,,,,,ID:100-1,13.25,3.27,-164.24,0.0,0.0,0.0
159.29999999999524,,,,,,,,ID:100-1,13.25,3.27,-164.25,0.0,0.0,0.0
159.39999999999523,,,,,,,,ID:100-1,13.25,3.27,-164.25,0.0,0.0,0.0
159.49999999999523,,,,,,,,ID:100-1,13.24,3.27,-164.25,0.0,0.0,0.0
159.59999999999522,,,,,,,,ID:100-1,13.24,3.27,-164.26,0.0,0.0,0.0
159.6999999999952,,,,,,,,ID:100-1,13.23,3.26,-164.26,0.0,0.0,0.0
159.7999999999952,,,,,,,,ID:100-1,13.22,3.26,-164.27,0.0,0.0,0.0
159.8999999999952,,,,,,,,ID:100-1,13.21,3.25,-164.27,0.0,0.0,0.0
159.9999999999952,,,,,,,,ID:100-1,13.20,3.25,-164.27,0.0,0.0,0.0
160.0999999999952,,,,,,,,ID:100-1,13.19,3.24,-164.28,0.0,0.0,0.0
160.19999999999519,,,,,,,,ID:100-1,13.18,3.24,-164.28,0.0,0.0,0.0
160.29999999999518,,,,,,,,ID:100-1,13.18,3.24,-164.29,0.0,0.0,0.0
160.39999999999517,,,,,,,,ID:100-1,13.17,3.23,-164.30,0.0,0.0,0.0
160.49999999999517,,,,,,,,ID:100-1,13.16,3.23,-164.30,0.0,0.0,0.0
160.59999999999516,,,,,,,,ID:100-1,13.15,3.22,-164.31,0.0,0.0,0.0
160.69999999999516,,,,,,,,ID:100-1,13.14,3.22,-164.31,0.0,0.0,0.0
160.79999999999515,,,,,,,,ID:100-1,13.13,3.22,-164.32,0.0,0.0,0.0
160.89999999999515,,,,,,,,ID:100-1,13.12,3.21,-164.33,0.0,0.0,0.0
160.99999999999514,,,,,,,,ID:100-1,13.11,3.21,-164.33,0.0,0.0,0.0
161.09999999999513,,,,,,,,ID:100-1,13.11,3.21,-164.34,0.0,0.0,0.0
161.19999999999513,,,,,,,,ID:100-1,13.10,3.21,-164.35,0.0,0.0,0.0
161.29999999999512,,,,,,,,ID:100-1,13.10,3.21,-164.35,0.0,0.0,0.0
161.39999999999512,,,,,,,,ID:100-1,13.10,3.21,-164.36,0.0,0.0,0.0
161.4999999999951,,,,,,,,ID:100-1,13.10,3.21,-164.37,0.0,0.0,0.0
161.5999999999951,,,,,,,,ID:100-1,13.09,3.20,-164.37,0.0,0.0,0.0
161.6999999999951,,,,,,,,ID:100-1,13.09,3.20,-164.38,0.0,0.0,0.0
161.7999999999951,,,,,,,,ID:100-1,13.09,3.20,-164.39,0.0,0.0,0.0
161.8999999999951,,,,,,,,ID:100-1,13.09,3.19,-164.39,0.0,0.0,0.0
161.99999999999508,,,,,,,,ID:100-1,13.08,3.19,-164.40,0.0,0.0,0.0
162.09999999999508,,,,,,,,ID:100-1,13.08,3.19,-164.41,0.0,0.0,0.0
162.19999999999507,,,,,,,,ID:100-1,13.08,3.18,-164.42,0.0,0.0,0.0
162.29999999999507,,,,,,,,ID:100-1,13.08,3.18,-164.42,0.0,0.0,0.0
162.39999999999506,,,,,,,,ID:100-1,13.08,3.18,-164.43,0.0,0.0,0.0
162.49999999999505,,,,,,,,ID:100-1,13.07,3.17,-164.43,0.0,0.0,0.0
162.59999999999505,,,,,,,,ID:100-1,13.07,3.17,-164.44,0.0,0.0,0.0
162.69999999999504,,,,,,,,ID:100-1,13.07,3.18,-164.44,0.0,0.0,0.0
162.79999999999504,,,,,,,,ID:100-1,13.07,3.18,-164.44,0.0,0.0,0.0
162.89999999999503,,,,,,,,ID:100-1,13.07,3.18,-164.45,0.0,0.0,0.0
162.99999999999503,,,,,,,,ID:100-1,13.06,3.18,-164.45,0.0,0.0,0.0
163.09999999999502,,,,,,,,ID:100-1,13.06,3.18,-164.46,0.0,0.0,0.0
163.19999999999501,,,,,,,,ID:100-1,13.06,3.17,-164.46,0.0,0.0,0.0
163.299999999995,,,,,,,,ID:100-1,13.05,3.17,-164.46,0.0,0.0,0.0
163.399999999995,,,,,,,,ID:100-1,13.05,3.16,-164.46,0.0,0.0,0.0
163.499999999995,,,,,,,,ID:100-1,13.04,3.15,-164.47,0.0,0.0,0.0
163.599999999995,,,,,,,,ID:100-1,13.03,3.15,-164.47,0.0,0.0,0.0
163.699999999995,,,,,,,,ID:100-1,13.03,3.14,-164.47,0.0,0.0,0.0
163.79999999999498,,,,,,,,ID:100-1,13.02,3.14,-164.47,0.0,0.0,0.0
163.89999999999498,,,,,,,,ID:100-1,13.02,3.14,-164.48,0.0,0.0,0.0
163.99999999999497,,,,,,,,ID:100-1,13.01,3.14,-164.48,0.0,0.0,0.0
164.09999999999496,,,,,,,,ID:100-1,13.01,3.13,-164.48,0.0,0.0,0.0
164.19999999999496,,,,,,,,ID:100-1,13.01,3.13,-164.48,0.0,0.0,0.0
164.29999999999495,,,,,,,,ID:100-1,13.01,3.13,-164.49,0.0,0.0,0.0
164.39999999999495,,,,,,,,ID:100-1,13.01,3.13,-164.49,0.0,0.0,0.0
164.49999999999494,,,,,,,,ID:100-1,13.01,3.12,-164.50,0.0,0.0,0.0
164.59999999999494,,,,,,,,ID:100-1,13.01,3.12,-164.50,0.0,0.0,0.0
164.69999999999493,,,,,,,,ID:100-1,13.01,3.12,-164.50,0.0,0.0,0.0
164.79999999999492,,,,,,,,ID:100-1,13.01,3.11,-164.51,0.0,0.0,0.0
164.89999999999492,,,,,,,,ID:100-1,13.01,3.10,-164.51,0.0,0.0,0.0
164.9999999999949,,,,,,,,ID:100-1,13.01,3.10,-164.51,0.0,0.0,0.0
165.0999999999949,,,,,,,,ID:100-1,13.01,3.09,-164.51,0.0,0.0,0.0
165.1999999999949,,,,,,,,ID:100-1,13.01,3.08,-164.52,0.0,0.0,0.0
165.2999999999949,,,,,,,,ID:100-1,13.01,3.08,-164.52,0.0,0.0,0.0
165.3999999999949,,,,,,,,ID:100-1,13.01,3.08,-164.52,0.0,0.0,0.0
165.49999999999488,,,,,,,,ID:100-1,13.00,3.07,-164.52,0.0,0.0,0.0
165.59999999999488,,,,,,,,ID:100-1,13.00,3.07,-164.53,0.0,0.0,0.0
165.69999999999487,,,,,,,,ID:100-1,13.01,3.08,-164.53,0.0,0.0,0.0
165.79999999999487,,,,,,,,ID:100-1,13.01,3.07,-164.53,0.0,0.0,0.0
165.89999999999486,,,,,,,,ID:100-1,13.01,3.07,-164.53,0.0,0.0,0.0
165.99999999999486,,,,,,,,ID:100-1,13.01,3.07,-164.53,0.0,0.0,0.0
166.09999999999485,,,,,,,,ID:100-1,13.01,3.07,-164.53,0.0,0.0,0.0
166.19999999999484,,,,,,,,ID:100-1,13.01,3.06,-164.54,0.0,0.0,0.0
166.29999999999484,,,,,,,,ID:100-1,13.01,3.06,-164.54,0.0,0.0,0.0
166.39999999999483,,,,,,,,ID:100-1,13.01,3.05,-164.53,0.0,0.0,0.0
166.49999999999483,,,,,,,,ID:100-1,13.01,3.05,-164.53,0.0,0.0,0.0
166.59999999999482,,,,,,,,ID:100-1,13.01,3.04,-164.53,0.0,0.0,0.0
166.69999999999482,,,,,,,,ID:100-1,13.01,3.04,-164.53,0.0,0.0,0.0
166.7999999999948,,,,,,,,ID:100-1,13.00,3.03,-164.53,0.0,0.0,0.0
166.8999999999948,,,,,,,,ID:100-1,13.00,3.03,-164.53,0.0,0.0,0.0
166.9999999999948,,,,,,,,ID:100-1,12.99,3.03,-164.53,0.0,0.0,0.0
167.0999999999948,,,,,,,,ID:100-1,12.99,3.02,-164.53,0.0,0.0,0.0
167.1999999999948,,,,,,,,ID:100-1,12.99,3.02,-164.53,0.0,0.0,0.0
167.29999999999478,,,,,,,,ID:100-1,12.98,3.02,-164.53,0.0,0.0,0.0
167.39999999999478,,,,,,,,ID:100-1,12.98,3.02,-164.54,0.0,0.0,0.0
167.49999999999477,,,,,,,,ID:100-1,12.98,3.02,-164.54,0.0,0.0,0.0
167.59999999999476,,,,,,,,ID:100-1,12.98,3.01,-164.54,0.0,0.0,0.0
167.69999999999476,,,,,,,,ID:100-1,12.97,3.01,-164.54,0.0,0.0,0.0
167.79999999999475,,,,,,,,ID:100-1,12.97,3.01,-164.54,0.0,0.0,0.0
167.89999999999475,,,,,,,,ID:100-1,12.97,3.01,-164.54,0.0,0.0,0.0
167.99999999999474,,,,,,,,ID:100-1,12.97,3.01,-164.55,0.0,0.0,0.0
168.09999999999474,,,,,,,,ID:100-1,12.97,3.01,-164.55,0.0,0.0,0.0
168.19999999999473,,,,,,,,ID:100-1,12.97,3.01,-164.55,0.0,0.0,0.0
168.29999999999472,,,,,,,,ID:100-1,12.97,3.00,-164.55,0.0,0.0,0.0
168.39999999999472,,,,,,,,ID:100-1,12.97,3.00,-164.56,0.0,0.0,0.0
168.4999999999947,,,,,,,,ID:100-1,12.96,3.00,-164.56,0.0,0.0,0.0
168.5999999999947,,,,,,,,ID:100-1,12.96,3.00,-164.56,0.0,0.0,0.0
168.6999999999947,,,,,,,,ID:100-1,12.96,3.00,-164.56,0.0,0.0,0.0
168.7999999999947,,,,,,,,ID:100-1,12.96,3.00,-164.57,0.0,0.0,0.0
168.8999999999947,,,,,,,,ID:100-1,12.96,2.99,-164.57,0.0,0.0,0.0
168.99999999999469,,,,,,,,ID:100-1,12.96,2.99,-164.57,0.0,0.0,0.0
169.09999999999468,,,,,,,,ID:100-1,12.95,2.99,-164.57,0.0,0.0,0.0
169.19999999999467,,,,,,,,ID:100-1,12.95,2.99,-164.57,0.0,0.0,0.0
169.29999999999467,,,,,,,,ID:100-1,12.95,2.99,-164.57,0.0,0.0,0.0
169.39999999999466,,,,,,,,ID:100-1,12.94,2.99,-164.57,0.0,0.0,0.0
169.49999999999466,,,,,,,,ID:100-1,12.94,2.98,-164.57,0.0,0.0,0.0
169.59999999999465,,,,,,,,ID:100-1,12.94,2.98,-164.57,0.0,0.0,0.0
169.69999999999465,,,,,,,,ID:100-1,12.93,2.98,-164.57,0.0,0.0,0.0
169.79999999999464,,,,,,,,ID:100-1,12.93,2.97,-164.57,0.0,0.0,0.0
169.89999999999463,,,,,,,,ID:100-1,12.93,2.97,-164.57,0.0,0.0,0.0
169.99999999999463,,,,,,,,ID:100-1,12.92,2.97,-164.58,0.0,0.0,0.0
170.09999999999462,,,,,,,,ID:100-1,12.92,2.97,-164.58,0.0,0.0,0.0
170.19999999999462,,,,,,,,ID:100-1,12.92,2.97,-164.58,0.0,0.0,0.0
170.2999999999946,,,,,,,,ID:100-1,12.92,2.97,-164.58,0.0,0.0,0.0
170.3999999999946,,,,,,,,ID:100-1,12.93,2.97,-164.58,0.0,0.0,0.0
170.4999999999946,,,,,,,,ID:100-1,12.93,2.97,-164.59,0.0,0.0,0.0
170.5999999999946,,,,,,,,ID:100-1,12.93,2.97,-164.59,0.0,0.0,0.0
170.6999999999946,,,,,,,,ID:100-1,12.93,2.96,-164.59,0.0,0.0,0.0
170.79999999999458,,,,,,,,ID:100-1,12.93,2.96,-164.60,0.0,0.0,0.0
170.89999999999458,,,,,,,,ID:100-1,12.93,2.96,-164.60,0.0,0.0,0.0
170.99999999999457,,,,,,,,ID:100-1,12.93,2.96,-164.60,0.0,0.0,0.0
171.09999999999457,,,,,,,,ID:100-1,12.93,2.96,-164.60,0.0,0.0,0.0
171.19999999999456,,,,,,,,ID:100-1,12.93,2.96,-164.61,0.0,0.0,0.0
171.29999999999455,,,,,,,,ID:100-1,12.93,2.96,-164.61,0.0,0.0,0.0
171.39999999999455,,,,,,,,ID:100-1,12.93,2.96,-164.61,0.0,0.0,0.0
171.49999999999454,,,,,,,,ID:100-1,12.93,2.96,-164.62,0.0,0.0,0.0
171.59999999999454,,,,,,,,ID:100-1,12.93,2.96,-164.62,0.0,0.0,0.0
171.69999999999453,,,,,,,,ID:100-1,12.93,2.96,-164.62,0.0,0.0,0.0
171.79999999999453,,,,,,,,ID:100-1,12.93,2.96,-164.62,0.0,0.0,0.0
171.89999999999452,,,,,,,,ID:100-1,12.93,2.96,-164.63,0.0,0.0,0.0
171.99999999999451,,,,,,,,ID:100-1,12.93,2.95,-164.63,0.0,0.0,0.0
172.0999999999945,,,,,,,,ID:100-1,12.94,2.95,-164.63,0.0,0.0,0.0
172.1999999999945,,,,,,,,ID:100-1,12.94,2.95,-164.64,0.0,0.0,0.0
172.2999999999945,,,,,,,,ID:100-1,12.93,2.94,-164.64,0.0,0.0,0.0
172.3999999999945,,,,,,,,ID:100-1,12.93,2.94,-164.64,0.0,0.0,0.0
172.4999999999945,,,,,,,,ID:100-1,12.93,2.93,-164.64,0.0,0.0,0.0
172.59999999999448,,,,,,,,ID:100-1,12.92,2.93,-164.64,0.0,0.0,0.0
172.69999999999447,,,,,,,,ID:100-1,12.92,2.93,-164.64,0.0,0.0,0.0
172.79999999999447,,,,,,,,ID:100-1,12.92,2.93,-164.64,0.0,0.0,0.0
172.89999999999446,,,,,,,,ID:100-1,12.92,2.93,-164.65,0.0,0.0,0.0
172.99999999999446,,,,,,,,ID:100-1,12.92,2.93,-164.65,0.0,0.0,0.0
173.09999999999445,,,,,,,,ID:100-1,12.93,2.93,-164.65,0.0,0.0,0.0
173.19999999999445,,,,,,,,ID:100-1,12.93,2.94,-164.66,0.0,0.0,0.0
173.29999999999444,,,,,,,,ID:100-1,12.93,2.94,-164.66,0.0,0.0,0.0
173.39999999999444,,,,,,,,ID:100-1,12.94,2.94,-164.66,0.0,0.0,0.0
173.49999999999443,,,,,,,,ID:100-1,12.94,2.94,-164.67,0.0,0.0,0.0
173.59999999999442,,,,,,,,ID:100-1,12.94,2.94,-164.67,0.0,0.0,0.0
173.69999999999442,,,,,,,,ID:100-1,12.94,2.94,-164.67,0.0,0.0,0.0
173.7999999999944,,,,,,,,ID:100-1,12.94,2.94,-164.68,0.0,0.0,0.0
173.8999999999944,,,,,,,,ID:100-1,12.94,2.94,-164.68,0.0,0.0,0.0
173.9999999999944,,,,,,,,ID:100-1,12.94,2.94,-164.68,0.0,0.0,0.0
