Y-M-D,H-M-S,Roll_hand,Pitch_hand,Yaw_hand,Acc_x_hand,Acc_y_hand,Acc_z_hand,Roll_head,Pitch_head,Yaw_head,Acc_x_head,Acc_y_head,Acc_z_head
2022-11-14,02:37:42.069485,124.1,62.09,-43.43,-3267.4999999999995,2207.0,-413.6,-74.85,37.53,166.65,-2338.2999999999997,2010.3000000000002,-117.30000000000001
2022-11-14,02:37:42.072936,123.91,62.62,-43.1,3267.4999999999995,2221.0,-416.2,-75.1,36.42,166.79,-2364.3,2026.3999999999999,-122.0
2022-11-14,02:37:42.076217,123.94,63.01,-42.9,3249.7,2234.3,-418.49999999999994,-75.09,35.44,167.25,-2389.7,2042.1,-126.29999999999998
2022-11-14,02:37:42.079849,124.01,63.36,-42.74,3232.3,2247.2000000000003,-420.6,-75.07,34.57,167.45,-2413.8,2056.8,-130.5
2022-11-14,02:37:42.155232,124.27,65.17,-41.83,3135.4,2315.7,-430.3,-75.88,31.59,166.79,-2535.5,2138.2000000000003,-147.8
2022-11-14,02:37:42.160428,123.77,65.5,-41.82,3120.4,2325.6,-431.29999999999995,-76.03,31.01,166.82,-2553.4,2151.2,-150.2
2022-11-14,02:37:42.164883,123.7,65.8,-41.72,3105.9,2336.0,-432.8,-75.97,30.68,166.96,-2570.4,2165.0,-151.29999999999998
2022-11-14,02:37:42.168714,123.38,65.97,-41.75,3091.5,2345.6,-434.3,-75.43,30.48,167.41,-2586.6,2176.5,-153.6
2022-11-14,02:37:43.913153,120.89,70.65,-43.74,3012.6,2397.1,-438.90000000000003,-76.97,25.68,167.92,-2680.7,2245.1,-164.1
2022-11-14,02:37:44.197912,120.78,71.02,-44.0,3004.5,2402.5,-439.1,-77.25,25.03,167.91,-2691.2,2252.0,-165.1
2022-11-14,02:37:44.201530,120.46,71.47,-44.23,2997.6,2406.6,-439.20000000000005,-77.6,24.47,167.75,-2700.1,2258.5,-165.6
2022-11-14,02:37:44.213186,120.24,71.92,-44.48,2991.0,2411.3,-439.20000000000005,-77.89,23.98,167.64,-2707.7999999999997,2264.7,-165.79999999999998
2022-11-14,02:37:44.313156,120.02,72.31,-44.72,2985.2,2414.6,-438.99999999999994,-78.13,23.44,167.62,-2715.2999999999997,2270.4,-166.2
2022-11-14,02:37:44.413177,119.75,72.7,-44.8,2979.7000000000003,2418.2,-439.1,-78.38,23.03,167.55,-2722.2000000000003,2275.6,-166.3
2022-11-14,02:37:44.513164,119.64,72.99,-44.99,2975.0,2421.2,-438.90000000000003,-78.5,22.75,167.58,-2728.2,2280.3999999999996,-166.5
2022-11-14,02:37:44.820337,119.52,73.32,-45.03,2970.2000000000003,2424.4,-438.90000000000003,-78.62,22.48,167.61,-2733.7,2284.6,-166.3
2022-11-14,02:37:44.825061,119.31,73.55,-45.34,2966.4,2426.5,-438.40000000000003,-78.45,22.21,167.85,-2738.7,2288.6,-166.4
2022-11-14,02:37:44.828933,119.16,73.82,-45.52,2962.6,2429.4,-438.3,-78.49,22.06,167.8,-2743.6,2292.1,-166.79999999999998
2022-11-14,02:37:44.913324,118.86,74.04,-45.79,2959.4,2430.9,-437.9,-78.59,21.81,167.71,-2747.1,2295.1,-166.70000000000002
2022-11-14,02:37:45.013194,118.7,74.3,-45.84,2956.5,2432.7999999999997,-437.7,-78.7,21.53,167.66,-2750.7999999999997,2297.8,-166.9
2022-11-14,02:37:45.113197,118.32,74.52,-46.05,2954.1,2433.7,-437.3,-78.85,21.18,167.64,-2754.5,2300.5,-166.9
2022-11-14,02:37:45.405295,118.09,74.73,-46.05,2951.8,2435.9,-437.2,-79.01,21.04,167.55,-2758.2000000000003,2303.3,-166.70000000000002
2022-11-14,02:37:45.408920,117.91,74.89,-46.17,2949.5,2437.2,-437.0,-79.07,20.9,167.46,-2760.7,2305.3,-166.70000000000002
2022-11-14,02:37:45.413064,117.83,75.07,-46.21,2947.4,2438.7,-436.7,-79.22,20.63,167.42,-2763.2000000000003,2306.9,-167.0
2022-11-14,02:37:45.513124,117.69,75.17,-46.43,0.0,0.0,0.0,-79.43,20.38,167.35,-2766.1000000000004,2309.1,-166.6
2022-11-14,02:37:45.613180,117.51,75.28,-46.54,-1.4000000000000001,0.8,0.0,-79.51,20.27,167.28,-2768.3,2310.6000000000004,-166.6
2022-11-14,02:37:45.713110,117.4,75.33,-46.61,-0.2,0.0,0.0,-79.55,20.05,167.21,-2770.6,2312.3,-166.70000000000002
2022-11-14,02:37:46.021629,117.46,75.43,-46.44,-0.1,0.1,0.0,-79.7,19.97,167.19,-2772.8,2314.3,-166.0
2022-11-14,02:37:46.026179,117.52,75.52,-46.38,0.0,0.0,0.0,-79.7,19.89,167.24,-2774.6,2315.7,-165.79999999999998
2022-11-14,02:37:46.030220,117.58,75.6,-46.31,-0.4,0.3,0.0,-79.65,19.89,167.36,0.0,0.0,0.0
2022-11-14,02:37:46.113050,117.67,75.69,-46.4,0.0,0.0,0.0,-79.72,19.82,167.36,-0.7000000000000001,0.4,0.0
2022-11-14,02:37:46.213042,117.65,75.73,-46.51,0.0,0.0,0.0,-79.88,19.8,167.25,0.0,0.0,0.0
2022-11-14,02:37:46.313061,117.65,75.75,-46.67,0.0,0.0,0.0,-80.02,19.76,167.15,0.0,0.0,0.0
2022-11-14,02:37:46.600698,117.49,75.73,-46.85,0.0,0.0,0.0,-80.07,19.74,167.08,0.0,0.0,0.0
2022-11-14,02:37:46.604171,117.55,75.79,-46.79,0.0,0.0,0.0,-80.12,19.7,167.08,0.0,0.0,0.0
2022-11-14,02:37:46.612944,117.52,75.86,-46.74,0.0,0.0,0.0,-80.08,19.76,167.11,0.0,0.0,0.0
2022-11-14,02:37:46.713073,117.35,75.89,-46.88,0.0,0.0,0.0,-79.94,19.7,167.19,0.0,0.0,0.0
2022-11-14,02:37:46.813065,117.35,75.97,-46.9,0.0,0.0,0.0,-80.08,19.67,167.08,0.0,0.0,0.0
2022-11-14,02:37:46.913065,117.11,76.01,-47.16,0.0,0.0,0.0,-80.09,19.66,167.05,0.0,0.0,0.0
2022-11-14,02:37:47.221574,116.93,76.11,-47.29,0.0,0.0,0.0,-80.12,19.58,166.96,0.0,0.0,0.0
2022-11-14,02:37:47.226102,116.73,76.13,-47.54,0.0,0.0,0.0,-80.14,19.48,166.96,0.0,0.0,0.0
2022-11-14,02:37:47.229902,116.65,76.18,-47.85,0.0,0.0,0.0,-80.16,19.35,166.95,0.0,0.0,0.0
2022-11-14,02:37:47.313045,116.53,76.2,-48.11,0.0,0.0,0.0,-80.23,19.25,166.91,0.0,0.0,0.0
2022-11-14,02:37:47.413064,116.14,76.22,-48.32,0.0,0.0,0.0,-80.26,19.19,166.95,0.0,0.0,0.0
2022-11-14,02:37:47.513088,115.9,76.25,-48.35,0.0,0.0,0.0,-80.28,19.21,167.0,0.0,0.0,0.0
2022-11-14,02:37:47.798722,115.78,76.22,-48.41,0.0,0.0,0.0,-80.26,19.2,167.07,0.0,0.0,0.0
2022-11-14,02:37:47.802254,115.76,76.23,-48.44,0.0,0.0,0.0,-80.17,19.13,167.17,0.0,0.0,0.0
2022-11-14,02:37:47.813013,115.53,76.29,-48.59,0.0,0.0,0.0,-80.25,19.05,167.16,0.0,0.0,0.0
2022-11-14,02:37:47.913133,115.55,76.42,-48.57,0.0,0.0,0.0,-80.29,19.14,167.12,0.0,0.0,0.0
2022-11-14,02:37:48.014024,115.38,76.47,-48.71,0.0,0.0,0.0,-80.35,19.03,167.16,0.0,0.0,0.0
2022-11-14,02:37:48.114943,115.29,76.55,-48.72,0.0,0.0,0.0,-80.47,18.84,167.2,0.0,0.0,0.0
2022-11-14,02:37:48.473944,115.31,76.56,-48.66,0.0,0.0,0.0,-80.56,18.7,167.21,0.0,0.0,0.0
2022-11-14,02:37:48.478757,115.31,76.55,-48.62,0.0,0.0,0.0,-80.65,18.59,167.28,0.0,0.0,0.0
2022-11-14,02:37:48.482855,115.36,76.53,-48.48,0.0,0.0,0.0,-80.66,18.64,167.3,0.0,0.0,0.0
2022-11-14,02:37:48.513058,115.44,76.51,-48.29,0.0,0.0,0.0,-80.67,18.76,167.32,0.0,0.0,0.0
2022-11-14,02:37:48.613066,115.64,76.54,-48.05,0.0,0.0,0.0,-80.66,18.85,167.39,0.0,0.0,0.0
2022-11-14,02:37:48.713071,115.65,76.53,-48.06,0.0,0.0,0.0,-80.57,18.94,167.47,0.0,0.0,0.0
2022-11-14,02:37:48.997654,115.83,76.53,-48.04,0.0,0.0,0.0,-80.54,18.96,167.41,0.0,0.0,0.0
2022-11-14,02:37:49.001255,115.95,76.54,-47.89,0.0,0.0,0.0,-80.61,19.03,167.33,0.0,0.0,0.0
2022-11-14,02:37:49.013076,116.1,76.6,-47.71,0.0,0.0,0.0,-80.63,19.07,167.25,0.0,0.0,0.0
2022-11-14,02:37:49.113051,116.26,76.64,-47.53,0.0,0.0,0.0,-80.53,19.1,167.28,0.0,0.0,0.0
2022-11-14,02:37:49.213048,116.36,76.65,-47.61,0.0,0.0,0.0,-80.52,19.12,167.26,0.0,0.0,0.0
2022-11-14,02:37:49.313053,116.4,76.62,-47.73,0.0,0.0,0.0,-80.71,19.06,167.17,0.0,0.0,0.0
2022-11-14,02:37:49.622878,116.48,76.61,-47.71,0.0,0.0,0.0,-80.85,19.03,167.09,0.0,0.0,0.0
2022-11-14,02:37:49.627565,116.56,76.69,-47.57,0.0,0.0,0.0,-80.88,19.0,167.09,0.0,0.0,0.0
2022-11-14,02:37:49.631269,116.56,76.67,-47.69,0.0,0.0,0.0,-80.75,19.01,167.19,0.0,0.0,0.0
2022-11-14,02:37:49.713066,116.5,76.68,-47.87,0.0,0.0,0.0,-80.77,18.97,167.18,0.0,0.0,0.0
2022-11-14,02:37:49.813067,116.67,76.72,-47.91,0.0,0.0,0.0,-80.86,18.95,167.06,0.0,0.0,0.0
2022-11-14,02:37:49.913056,116.5,76.7,-48.07,0.0,0.0,0.0,-80.86,18.89,166.99,0.0,0.0,0.0
2022-11-14,02:37:50.198861,116.45,76.67,-48.19,0.0,0.0,0.0,-81.03,18.87,166.94,0.0,0.0,0.0
2022-11-14,02:37:50.202360,116.23,76.67,-48.21,0.0,0.0,0.0,-81.07,18.79,166.94,0.0,0.0,0.0
2022-11-14,02:37:50.213014,116.09,76.66,-48.27,0.0,0.0,0.0,-80.97,18.79,167.08,0.0,0.0,0.0
2022-11-14,02:37:50.313054,115.99,76.64,-48.24,0.0,0.0,0.0,-80.88,18.76,167.23,0.0,0.0,0.0
2022-11-14,02:37:50.413050,115.97,76.66,-48.24,0.0,0.0,0.0,-80.79,18.79,167.33,0.0,0.0,0.0
2022-11-14,02:37:50.513053,115.99,76.65,-48.3,0.0,0.0,0.0,-80.68,18.88,167.43,0.0,0.0,0.0
2022-11-14,02:37:50.822441,115.99,76.64,-48.39,0.0,0.0,0.0,-80.69,18.9,167.38,0.0,0.0,0.0
2022-11-14,02:37:50.826974,115.95,76.62,-48.49,0.0,0.0,0.0,-80.71,18.93,167.33,0.0,0.0,0.0
2022-11-14,02:37:50.831170,115.92,76.62,-48.48,0.0,0.0,0.0,-80.78,18.88,167.32,0.0,0.0,0.0
2022-11-14,02:37:50.913044,115.96,76.63,-48.37,0.0,0.0,0.0,-80.83,18.86,167.34,0.0,0.0,0.0
2022-11-14,02:37:51.013052,115.88,76.64,-48.28,0.0,0.0,0.0,-80.79,18.76,167.46,0.0,0.0,0.0
2022-11-14,02:37:51.113051,116.02,76.68,-48.09,0.0,0.0,0.0,-80.82,18.82,167.49,0.0,0.0,0.0
2022-11-14,02:37:51.397805,115.93,76.7,-48.0,0.0,0.0,0.0,-80.76,18.84,167.62,0.0,0.0,0.0
2022-11-14,02:37:51.401288,115.93,76.76,-47.93,0.0,0.0,0.0,-80.73,18.84,167.71,0.0,0.0,0.0
2022-11-14,02:37:51.413045,115.87,76.81,-47.9,0.0,0.0,0.0,-80.7,18.8,167.8,0.0,0.0,0.0
2022-11-14,02:37:51.513048,115.82,76.91,-47.87,0.0,0.0,0.0,-80.75,18.75,167.82,0.0,0.0,0.0
2022-11-14,02:37:51.613031,115.81,77.01,-47.81,0.0,0.0,0.0,-80.84,18.69,167.83,0.0,0.0,0.0
2022-11-14,02:37:51.713042,115.8,77.15,-47.72,0.0,0.0,0.0,-80.93,18.58,167.88,0.0,0.0,0.0
2022-11-14,02:37:52.024572,115.77,77.32,-47.44,0.0,0.0,0.0,-81.06,18.42,167.91,0.0,0.0,0.0
2022-11-14,02:37:52.029379,116.0,77.53,-46.97,0.2,-0.1,0.1,-81.35,18.1,168.02,0.0,0.0,0.0
2022-11-14,02:37:52.033480,116.13,77.75,-46.45,0.0,0.0,0.0,-81.52,18.01,168.35,0.0,0.0,0.0
2022-11-14,02:37:52.113051,116.63,78.09,-45.73,0.0,0.0,0.1,-81.7,17.69,168.74,1.6,0.0,-0.1
2022-11-14,02:37:52.213107,116.53,78.47,-45.55,0.8999999999999999,-0.3,3.1,-81.72,17.06,170.16,10.0,0.0,0.8
2022-11-14,02:37:52.313075,115.47,78.86,-45.71,1.2,2.1,9.700000000000001,-81.63,14.83,173.63,23.3,-1.2,-1.6
2022-11-14,02:37:52.596986,113.39,78.69,-47.33,-0.2,4.2,14.2,-82.4,12.19,177.96,33.6,-1.7999999999999998,-4.6
2022-11-14,02:37:52.600515,107.87,81.35,-51.26,-1.0,5.5,12.1,-83.36,9.64,-177.94,41.3,-4.8,-9.0
2022-11-14,02:37:52.613080,91.84,84.96,-65.19,1.9,-1.4000000000000001,-0.7000000000000001,-84.94,7.16,-174.9,46.1,-7.6,-20.3
2022-11-14,02:37:52.713115,29.32,86.8,-123.04,-4.3999999999999995,-6.0,0.1,-87.32,4.94,-173.25,46.0,-6.2,-32.800000000000004
2022-11-14,02:37:52.813157,-19.6,83.82,-170.41,-7.5,-5.4,-2.8000000000000003,-89.52,2.03,-172.93,36.199999999999996,-2.8000000000000003,-42.6
2022-11-14,02:37:52.913137,-30.74,80.65,178.71,-3.2,-8.3,-5.2,-91.25,-0.65,-173.6,18.6,2.8000000000000003,-44.6
2022-11-14,02:37:53.230505,-31.8,78.84,178.51,-0.4,1.0,-0.8999999999999999,-92.78,-3.04,-174.35,-1.7999999999999998,10.299999999999999,-34.300000000000004
2022-11-14,02:37:53.236973,-32.44,77.58,178.6,-1.6,1.7999999999999998,-3.2,-93.3,-4.64,-174.85,-18.7,17.7,-21.0
2022-11-14,02:37:53.244056,-33.52,76.96,178.5,-1.9,1.7000000000000002,-6.1,-93.47,-5.82,-175.15,-32.6,22.2,-13.3
2022-11-14,02:37:53.314098,-37.2,76.17,176.06,-3.3000000000000003,3.3000000000000003,-6.6000000000000005,-93.68,-6.73,-175.48,-42.3,24.3,-10.4
2022-11-14,02:37:53.414100,-38.26,75.6,175.27,-4.6,4.7,-3.4000000000000004,-93.94,-7.13,-175.98,-48.5,26.1,-8.7
2022-11-14,02:37:53.514680,-36.69,75.49,176.33,1.5,-1.2,-1.5,-94.17,-7.19,-176.46,-54.2,27.900000000000002,-3.9
2022-11-14,02:37:53.852513,-38.79,75.25,175.14,-0.4,0.5,0.4,-93.86,-6.89,-177.25,-56.99999999999999,30.0,-1.4000000000000001
2022-11-14,02:37:53.856035,-34.55,75.26,177.76,0.5,-0.6,0.0,-93.83,-6.95,-177.69,-1.3,0.0,0.0
2022-11-14,02:37:53.859189,-33.39,75.4,178.93,0.0,0.0,0.0,-93.97,-7.09,-178.23,-4.3999999999999995,0.0,0.1
2022-11-14,02:37:53.913009,-34.4,75.22,178.19,0.0,0.0,0.0,-94.38,-7.4,-178.74,-6.2,1.4000000000000001,1.0
2022-11-14,02:37:54.013040,-35.14,75.24,177.77,-0.1,0.0,0.0,-94.64,-7.42,-178.81,0.0,0.0,0.0
2022-11-14,02:37:54.113047,-36.09,75.07,177.0,0.0,0.0,0.0,-94.86,-7.5,-178.83,0.0,0.0,0.0
2022-11-14,02:37:54.430845,-36.79,74.99,176.33,0.0,0.0,0.0,-95.15,-7.53,-178.77,-0.8999999999999999,0.8999999999999999,0.4
2022-11-14,02:37:54.435422,-36.97,74.98,176.02,0.0,0.0,0.0,-95.36,-7.45,-178.71,0.0,0.0,0.0
2022-11-14,02:37:54.439149,-37.14,74.98,175.83,0.2,-0.2,0.0,-95.61,-7.43,-178.63,-0.1,0.1,0.0
2022-11-14,02:37:54.513015,-37.51,75.02,175.63,0.0,0.0,0.0,-95.91,-7.44,-178.53,-2.1999999999999997,1.6,1.9
2022-11-14,02:37:54.613027,-37.88,75.07,175.46,0.0,0.0,0.0,-95.82,-7.37,-178.57,0.0,0.0,0.0
2022-11-14,02:37:54.713055,-38.63,74.94,174.68,0.0,0.0,0.0,-95.84,-7.29,-178.6,0.0,0.0,0.0
2022-11-14,02:37:54.998904,-39.27,74.71,173.95,0.0,0.0,0.0,-95.95,-7.21,-178.55,0.0,0.0,0.0
2022-11-14,02:37:55.002396,-39.1,74.7,174.0,0.0,0.0,0.0,-95.99,-7.27,-178.54,0.0,0.0,0.0
2022-11-14,02:37:55.012986,-39.19,74.64,173.84,0.0,0.0,0.0,-96.15,-7.34,-178.5,0.0,0.0,0.0
2022-11-14,02:37:55.113014,-38.87,74.6,173.93,0.0,0.0,0.0,-96.27,-7.35,-178.42,0.0,0.0,0.0
2022-11-14,02:37:55.213047,-38.9,74.61,173.88,0.0,0.0,0.0,-96.45,-7.37,-178.37,0.0,0.0,0.0
2022-11-14,02:37:55.313046,-38.72,74.55,173.95,0.0,0.0,0.0,-96.56,-7.4,-178.27,0.0,0.0,0.0
2022-11-14,02:37:55.676934,-38.56,74.5,174.05,0.0,0.0,0.0,-96.74,-7.37,-178.18,0.0,0.0,0.0
2022-11-14,02:37:55.681638,-39.01,74.5,173.82,0.0,0.0,0.0,-96.89,-7.31,-178.12,0.0,0.0,0.0
2022-11-14,02:37:55.685409,-39.07,74.51,173.82,0.0,0.0,0.0,-96.89,-7.31,-178.04,0.0,0.0,0.0
2022-11-14,02:37:55.713021,-38.48,74.53,174.1,0.0,0.0,0.0,-96.89,-7.23,-178.02,0.0,0.0,0.0
2022-11-14,02:37:55.812987,-38.2,74.63,174.13,0.0,0.0,0.0,-96.86,-7.18,-178.08,0.0,0.0,0.0
2022-11-14,02:37:55.913007,-37.94,74.71,173.99,0.0,0.0,0.0,-96.97,-7.05,-178.16,0.0,0.0,0.0
2022-11-14,02:37:56.326791,-36.96,74.9,173.94,0.0,0.0,0.1,-97.09,-7.06,-178.39,-0.1,0.0,0.0
2022-11-14,02:37:56.331872,-35.74,75.43,174.28,-0.8999999999999999,1.9,2.0,-97.62,-7.62,-178.79,-3.2,-1.9,0.0
2022-11-14,02:37:56.336209,-32.83,75.38,175.05,0.5,-1.7999999999999998,-1.0999999999999999,-99.39,-9.38,-179.2,-3.0,-3.4000000000000004,-1.9
2022-11-14,02:37:56.339599,-32.64,75.4,175.01,-0.4,0.7000000000000001,0.8999999999999999,-100.8,-9.78,-179.69,-0.3,0.0,-2.4
2022-11-14,02:37:56.412956,-31.4,75.04,175.07,0.0,0.0,0.0,-101.06,-10.16,-179.89,0.0,0.0,-0.2
2022-11-14,02:37:56.513043,-29.1,74.85,175.21,1.7000000000000002,-0.7000000000000001,-1.0999999999999999,-101.13,-10.75,-179.99,0.0,0.0,0.0
2022-11-14,02:37:56.840945,-27.19,74.92,175.35,3.9,-3.5999999999999996,-1.5,-101.64,-11.15,179.86,-2.7,-0.4,2.7
2022-11-14,02:37:56.846381,-26.14,74.95,175.18,0.0,-2.5,-0.7000000000000001,-101.9,-11.22,179.38,-3.5000000000000004,0.8999999999999999,4.7
2022-11-14,02:37:56.850777,-26.27,74.93,174.71,0.0,0.0,0.0,-102.34,-11.25,178.88,-2.3,4.5,4.3999999999999995
2022-11-14,02:37:56.912947,-25.87,74.9,174.83,0.0,0.0,0.0,-102.85,-11.06,178.95,-0.6,7.9,4.5
2022-11-14,02:37:57.013006,-25.96,74.96,174.77,0.2,-0.3,0.0,-103.17,-11.06,179.28,0.0,0.0,0.0
2022-11-14,02:37:57.113038,-26.59,75.04,174.63,-0.7000000000000001,0.8999999999999999,0.4,-103.69,-10.93,179.98,0.3,1.4000000000000001,1.0
2022-11-14,02:37:57.397556,-27.07,74.98,174.52,0.0,0.0,0.0,-103.86,-10.76,-179.07,0.0,0.0,0.0
2022-11-14,02:37:57.401198,-27.15,74.98,174.84,0.0,0.0,0.0,-103.88,-10.81,-178.54,0.0,0.0,0.0
2022-11-14,02:37:57.412968,-27.33,74.93,175.02,0.0,0.0,0.0,-103.77,-11.32,-178.42,-0.6,0.0,1.0999999999999999
2022-11-14,02:37:57.513032,-27.08,74.91,175.05,0.6,-0.4,-0.2,-103.35,-11.76,-178.46,0.0,0.0,0.0
2022-11-14,02:37:57.613011,-27.4,75.03,174.94,-0.3,0.3,0.2,-103.32,-11.8,-178.34,0.0,0.0,0.0
2022-11-14,02:37:57.712949,-27.46,74.97,174.74,0.0,0.0,0.0,-103.13,-11.66,-178.23,0.0,0.0,0.0
2022-11-14,02:37:58.036366,-27.24,74.91,174.8,0.0,0.0,0.0,-103.18,-11.62,-178.06,0.0,0.0,0.0
2022-11-14,02:37:58.041373,-27.52,74.89,174.7,0.0,0.0,0.0,-103.19,-11.61,-177.84,0.0,0.0,0.0
2022-11-14,02:37:58.045161,-27.4,74.77,174.79,0.0,0.0,0.0,-103.1,-11.65,-177.68,0.0,0.0,0.0
2022-11-14,02:37:58.112938,-27.72,74.61,174.58,0.0,0.0,0.0,-102.82,-11.68,-177.64,0.0,0.0,0.0
2022-11-14,02:37:58.212949,-27.93,74.49,174.53,0.0,0.0,0.0,-102.7,-11.68,-177.56,0.0,0.0,0.0
2022-11-14,02:37:58.312950,-27.64,74.21,174.64,0.0,0.0,0.0,-102.41,-11.56,-177.5,0.0,0.0,0.0
2022-11-14,02:37:58.595441,-27.49,74.01,174.66,0.0,0.0,0.0,-101.74,-11.4,-177.57,0.0,0.0,0.0
2022-11-14,02:37:58.599025,-27.61,73.83,174.39,0.0,0.0,0.0,-101.01,-10.91,-177.61,0.0,0.0,0.0
2022-11-14,02:37:58.612984,-27.52,73.79,174.5,0.0,0.0,0.0,-100.53,-10.41,-177.75,0.0,0.0,0.0
2022-11-14,02:37:58.713893,-27.32,73.6,174.37,0.0,0.0,0.0,-100.44,-10.08,-177.79,0.3,1.4000000000000001,0.0
2022-11-14,02:37:58.814941,-26.42,73.51,174.67,1.5,-2.1999999999999997,-0.6,-100.19,-8.94,-177.46,0.0,0.0,0.0
2022-11-14,02:37:58.914923,-26.78,73.56,174.92,-0.4,0.3,0.0,-100.15,-8.07,-176.9,0.0,0.0,0.0
2022-11-14,02:37:59.294126,-26.98,73.49,174.93,0.0,0.0,0.0,-99.89,-7.7,-176.45,0.0,0.0,0.0
2022-11-14,02:37:59.299582,-26.97,73.42,174.86,0.0,0.0,0.0,-99.44,-7.67,-176.08,-1.0999999999999999,-1.2,-0.7000000000000001
2022-11-14,02:37:59.303302,-27.92,73.42,174.23,0.0,0.0,0.0,-99.5,-7.8,-175.92,0.0,0.0,0.0
2022-11-14,02:37:59.313275,-28.23,73.42,174.0,0.0,0.0,0.0,-99.72,-7.87,-175.64,0.0,0.0,0.0
2022-11-14,02:37:59.412986,-28.6,73.46,173.92,0.0,1.0,0.7000000000000001,-99.95,-7.84,-175.56,-0.4,0.6,1.4000000000000001
2022-11-14,02:37:59.513039,-28.04,73.49,174.08,0.1,-0.1,-0.2,-99.76,-7.88,-175.58,-0.6,-0.5,1.0
2022-11-14,02:37:59.795970,-28.7,73.55,173.6,0.0,0.0,0.0,-99.26,-8.09,-175.92,-0.1,0.0,-0.1
2022-11-14,02:37:59.799447,-29.51,73.6,173.31,0.0,0.0,0.0,-99.4,-8.11,-176.27,-0.7000000000000001,1.5,-3.0
2022-11-14,02:37:59.813146,-30.79,73.63,173.25,-0.5,1.5,1.3,-100.51,-8.67,-176.75,-0.2,4.5,-6.9
2022-11-14,02:37:59.912999,-29.13,73.71,175.07,-0.3,5.3,4.6,-101.93,-9.58,-176.79,1.7000000000000002,7.6,-4.5
2022-11-14,02:38:00.013014,-26.57,74.01,177.28,-6.4,14.399999999999999,4.3999999999999995,-101.45,-10.34,-176.31,1.7999999999999998,4.9,1.6
2022-11-14,02:38:00.113017,-24.8,73.72,174.67,-4.2,9.6,-0.6,-100.4,-11.44,-175.86,-4.3,-2.4,1.7999999999999998
2022-11-14,02:38:00.447042,-28.67,73.92,170.97,0.8,-1.0999999999999999,-1.7999999999999998,-101.09,-11.17,-176.21,-8.7,-4.1000000000000005,-2.3
2022-11-14,02:38:00.452569,-31.48,73.91,169.42,-2.0,-1.3,1.2,-102.86,-10.54,-176.69,-3.6999999999999997,2.5,-6.2
2022-11-14,02:38:00.456501,-31.13,73.85,170.14,0.0,0.0,0.0,-104.12,-10.33,-176.2,-0.8,8.799999999999999,-2.1999999999999997
2022-11-14,02:38:00.513026,-30.07,74.04,171.42,1.2,-0.4,-1.0999999999999999,-104.1,-10.39,-175.78,0.0,0.0,0.0
2022-11-14,02:38:00.613000,-30.69,74.17,171.4,-0.5,2.0,0.6,-103.84,-10.56,-175.69,0.0,0.0,0.0
2022-11-14,02:38:00.712937,-30.96,74.13,170.97,0.0,0.0,0.0,-103.52,-10.58,-175.74,0.0,0.0,0.0
2022-11-14,02:38:01.044816,-31.02,74.12,170.56,0.0,0.0,0.0,-103.3,-10.41,-175.91,0.0,0.0,0.0
2022-11-14,02:38:01.051236,-31.19,74.05,170.25,1.4000000000000001,-2.8000000000000003,-1.2,-103.2,-10.4,-176.31,0.0,0.1,-0.3
2022-11-14,02:38:01.055244,-31.7,73.97,170.31,-0.2,0.5,1.0,-103.7,-10.47,-176.82,2.1999999999999997,3.6999999999999997,-3.9
2022-11-14,02:38:01.112976,-30.65,73.76,171.24,0.0,0.0,0.0,-104.37,-10.95,-176.69,4.0,6.7,-4.3999999999999995
2022-11-14,02:38:01.213000,-29.83,73.56,171.56,0.0,0.0,0.0,-104.57,-11.72,-176.43,-0.1,-0.2,2.4
2022-11-14,02:38:01.313002,-28.65,73.51,171.58,0.0,-0.6,-0.8999999999999999,-104.15,-12.24,-176.31,-3.1,-3.5999999999999996,4.6
2022-11-14,02:38:01.596125,-28.71,73.45,170.69,1.0,-4.6,-2.4,-103.88,-12.5,-176.48,0.0,0.0,0.0
2022-11-14,02:38:01.599813,-30.12,73.37,169.55,-0.5,0.0,1.0999999999999999,-104.36,-11.87,-176.46,1.7999999999999998,2.7,-1.9
2022-11-14,02:38:01.612971,-30.21,73.24,169.65,0.0,0.0,0.0,-105.11,-11.44,-176.11,2.8000000000000003,5.7,-2.0
2022-11-14,02:38:01.712957,-29.92,73.12,170.19,0.0,0.0,0.0,-105.37,-11.51,-175.83,2.9000000000000004,8.200000000000001,-0.1
2022-11-14,02:38:01.812982,-30.19,72.97,170.39,0.0,0.0,0.0,-105.19,-11.63,-175.53,0.0,0.0,0.0
2022-11-14,02:38:01.912996,-29.99,72.75,170.58,0.0,0.0,0.0,-104.92,-11.88,-175.25,-1.3,-0.5,0.8
2022-11-14,02:38:02.236678,-29.74,72.65,170.84,0.0,0.0,0.0,-104.67,-11.94,-175.21,0.0,0.0,0.0
2022-11-14,02:38:02.241818,-29.34,72.68,171.31,0.0,-0.1,-0.1,-104.28,-11.39,-175.04,-0.5,0.6,1.7000000000000002
2022-11-14,02:38:02.245790,-29.12,72.84,171.78,0.0,-0.1,0.0,-103.83,-10.76,-174.76,-1.7999999999999998,3.1,2.6
2022-11-14,02:38:02.312972,-29.09,73.18,172.23,-1.0,3.0,1.3,-103.48,-10.04,-174.57,0.0,0.0,0.0
2022-11-14,02:38:02.413020,-28.25,73.19,171.95,0.4,-0.8,-0.1,-102.78,-9.74,-173.99,-0.2,-3.6999999999999997,1.0
2022-11-14,02:38:02.513036,-28.97,73.09,171.27,0.0,-3.1,-0.7000000000000001,-101.94,-9.59,-173.85,0.0,0.0,0.0
2022-11-14,02:38:02.795393,-30.07,72.82,170.42,1.0999999999999999,-9.2,-2.4,-101.31,-9.17,-174.17,1.4000000000000001,2.9000000000000004,-3.6999999999999997
2022-11-14,02:38:02.799001,-32.42,72.8,170.39,4.0,-12.9,-2.3,-101.36,-8.79,-174.52,2.4,9.9,-7.199999999999999
2022-11-14,02:38:02.812980,-32.44,73.03,172.52,0.4,3.2,1.4000000000000001,-101.47,-8.19,-174.63,2.4,15.8,-2.8000000000000003
2022-11-14,02:38:02.912970,-32.75,73.11,173.99,-1.7000000000000002,8.4,3.3000000000000003,-100.36,-7.83,-174.73,0.0,0.0,0.0
2022-11-14,02:38:03.012985,-30.95,73.21,175.98,-2.3,11.1,3.6999999999999997,-99.2,-7.7,-174.69,-0.8999999999999999,-2.7,0.8
2022-11-14,02:38:03.112971,-31.11,73.47,176.59,-0.1,1.0,0.0,-98.34,-7.69,-174.8,-2.6,-5.8999999999999995,0.8999999999999999
2022-11-14,02:38:03.435854,-32.27,73.45,176.0,-2.6,3.3000000000000003,1.7000000000000002,-98.17,-7.99,-174.94,-3.6999999999999997,-8.1,-0.1
2022-11-14,02:38:03.440957,-31.43,73.37,176.29,0.0,0.0,0.0,-98.27,-7.95,-175.01,-3.5999999999999996,-9.9,-1.6
2022-11-14,02:38:03.444872,-30.88,73.33,176.38,0.0,0.0,0.0,-98.53,-7.95,-175.15,0.0,0.0,0.0
2022-11-14,02:38:03.512946,-29.58,73.44,177.03,0.0,0.0,0.0,-98.63,-8.17,-175.31,0.0,0.0,0.0
2022-11-14,02:38:03.612893,-29.87,73.42,176.66,0.0,0.0,0.0,-98.67,-8.28,-175.66,0.0,0.0,0.0
2022-11-14,02:38:03.712962,-29.65,73.47,176.59,0.1,-0.1,0.0,-99.02,-8.43,-175.85,0.0,0.0,0.0
2022-11-14,02:38:03.994992,-29.7,73.56,176.54,0.0,0.0,0.0,-99.34,-8.54,-175.97,-2.1999999999999997,0.1,2.1
2022-11-14,02:38:03.998552,-29.46,73.59,176.41,0.0,0.0,0.0,-99.46,-8.48,-176.56,0.3,0.5,-0.2
2022-11-14,02:38:04.012931,-29.2,73.68,176.39,0.0,0.0,0.0,-99.7,-8.34,-176.73,0.0,0.0,0.0
2022-11-14,02:38:04.113858,-29.12,73.75,176.42,0.0,0.0,0.0,-99.68,-8.23,-176.9,0.0,0.0,0.0
2022-11-14,02:38:04.214933,-29.96,73.8,176.43,-5.5,-0.8,-1.4000000000000001,-99.61,-8.14,-177.05,-0.8,0.5,0.0
2022-11-14,02:38:04.314883,-28.38,73.91,177.81,-13.3,3.6999999999999997,-3.9,-99.56,-8.16,-177.05,-7.3,4.0,-1.7999999999999998
2022-11-14,02:38:04.690028,-27.62,74.31,178.92,-17.5,0.5,-7.7,-99.3,-7.85,-177.14,-15.9,8.4,4.6
2022-11-14,02:38:04.695087,-26.16,75.15,179.86,-27.6,9.8,-2.5,-97.7,-7.04,-176.89,-25.5,9.6,3.8
2022-11-14,02:38:04.699076,-23.29,76.3,-179.54,-36.7,14.799999999999999,-5.0,-97.42,-6.46,-176.76,-37.6,11.5,14.299999999999999
2022-11-14,02:38:04.713031,-21.11,77.61,179.9,-47.699999999999996,17.599999999999998,-13.4,-96.26,-4.16,-176.6,-59.9,15.2,35.3
2022-11-14,02:38:04.813005,-13.21,80.07,-175.16,-59.5,18.6,-16.900000000000002,-94.11,-0.04,-177.08,-92.4,26.1,50.5
2022-11-14,02:38:04.912973,7.46,83.91,-155.3,-67.60000000000001,20.4,-14.2,-91.79,4.49,-177.42,-123.70000000000002,40.0,46.400000000000006
2022-11-14,02:38:05.195573,61.2,84.71,-105.89,-52.6,27.700000000000003,6.9,-90.66,7.07,-177.39,-125.49999999999999,40.8,31.7
2022-11-14,02:38:05.199027,89.77,82.92,-79.31,-33.5,30.9,12.6,-90.85,8.54,-178.4,-98.1,33.5,30.2
2022-11-14,02:38:05.212980,102.18,83.46,-67.07,-18.0,31.8,3.4000000000000004,-90.59,10.46,-179.99,-63.0,28.599999999999998,26.400000000000002
2022-11-14,02:38:05.312955,109.41,82.84,-63.39,-2.7,38.4,3.2,-90.45,11.9,178.9,-40.300000000000004,25.1,12.6
2022-11-14,02:38:05.412946,118.55,81.41,-57.87,8.7,39.300000000000004,4.3999999999999995,-91.38,12.77,176.69,-24.099999999999998,26.8,4.2
2022-11-14,02:38:05.512934,122.88,80.08,-56.38,15.8,35.0,4.7,-91.87,13.02,173.34,-9.6,33.300000000000004,6.800000000000001
2022-11-14,02:38:05.837286,122.5,78.88,-57.07,19.400000000000002,29.2,4.1000000000000005,-91.81,12.8,170.25,4.8,38.4,3.5000000000000004
2022-11-14,02:38:05.842472,118.61,78.27,-58.32,21.4,29.2,0.0,-91.65,12.83,168.55,19.6,43.5,-0.2
2022-11-14,02:38:05.846224,111.12,77.39,-65.12,24.4,43.4,5.4,-92.36,12.44,166.42,20.4,47.0,-9.2
2022-11-14,02:38:05.912927,106.74,76.16,-68.52,23.5,52.2,9.5,-94.8,8.54,155.15,-1.3,52.1,-15.8
2022-11-14,02:38:06.012957,107.26,75.42,-69.75,19.6,51.300000000000004,7.8,-96.8,1.3,135.39,-10.9,58.699999999999996,-6.4
2022-11-14,02:38:06.112938,105.34,75.07,-75.1,17.9,53.300000000000004,8.799999999999999,-95.95,-4.36,117.77,-5.2,57.099999999999994,0.1
2022-11-14,02:38:06.396175,105.5,73.88,-82.23,13.4,44.7,8.799999999999999,-95.39,-6.85,105.4,4.0,54.0,5.5
2022-11-14,02:38:06.399630,102.54,73.45,-91.17,8.799999999999999,39.2,7.6,-94.61,-7.12,95.24,8.9,50.0,7.199999999999999
2022-11-14,02:38:06.412935,98.35,73.06,-100.68,4.9,37.2,6.3,-93.95,-6.76,86.12,10.5,39.4,3.3000000000000003
2022-11-14,02:38:06.512927,96.33,72.67,-108.01,1.6,37.7,2.0,-94.08,-6.24,80.61,7.000000000000001,28.9,-0.7000000000000001
2022-11-14,02:38:06.612945,98.35,72.18,-111.75,1.0,36.6,-4.9,-94.35,-5.96,76.95,-3.5999999999999996,27.1,-3.4000000000000004
2022-11-14,02:38:06.712968,105.77,71.08,-110.56,1.7999999999999998,28.499999999999996,-10.7,-95.26,-5.53,74.52,-21.6,26.6,-8.0
2022-11-14,02:38:07.036342,114.73,71.5,-106.33,8.3,20.5,1.3,-96.62,-5.19,73.18,-42.9,14.499999999999998,-5.800000000000001
2022-11-14,02:38:07.041336,119.42,70.95,-106.26,26.900000000000002,15.8,6.5,-98.21,-5.31,73.47,-26.5,11.600000000000001,-12.5
2022-11-14,02:38:07.045333,122.14,69.8,-108.86,47.8,14.000000000000002,-0.2,-100.05,-6.19,73.72,-4.7,7.199999999999999,-12.4
2022-11-14,02:38:07.112964,123.52,69.46,-112.37,65.2,13.700000000000001,-1.0999999999999999,-102.0,-7.83,73.54,11.1,4.7,-28.499999999999996
2022-11-14,02:38:07.212932,125.37,69.75,-113.88,71.3,11.200000000000001,1.0999999999999999,-104.3,-10.49,73.32,24.2,-1.2,-38.1
2022-11-14,02:38:07.312945,128.69,71.49,-114.14,73.1,8.7,5.800000000000001,-106.88,-14.15,73.43,31.900000000000002,-4.8,-42.199999999999996
2022-11-14,02:38:07.596074,133.6,73.41,-110.49,67.9,5.0,7.1,-107.65,-15.4,73.22,37.1,-5.2,-41.4
2022-11-14,02:38:07.599653,141.03,75.05,-105.31,-0.1,0.0,0.1,-108.45,-15.84,73.68,41.5,-1.6,-39.7
2022-11-14,02:38:07.612963,145.43,76.54,-102.16,-4.0,3.8,1.7000000000000002,-109.84,-17.07,74.65,48.8,3.1,-34.699999999999996
2022-11-14,02:38:07.712940,146.27,77.81,-102.49,1.6,0.0,-0.1,-110.49,-18.18,75.4,56.699999999999996,10.100000000000001,-24.2
2022-11-14,02:38:07.813018,149.07,78.71,-101.04,6.5,-0.8999999999999999,-0.8,-110.92,-19.07,75.84,63.3,15.9,-15.5
2022-11-14,02:38:07.912922,154.44,79.24,-96.57,0.0,0.0,0.0,-111.21,-19.58,75.91,68.10000000000001,20.1,-7.8
2022-11-14,02:38:08.236919,157.35,79.62,-94.4,0.0,0.0,0.0,-111.8,-19.55,76.19,71.89999999999999,21.9,-2.0
2022-11-14,02:38:08.242071,157.31,79.78,-95.09,0.5,0.0,0.0,-112.25,-19.74,76.34,74.4,23.0,2.1
2022-11-14,02:38:08.245972,157.78,79.87,-94.43,1.9,1.3,0.6,-112.58,-19.82,76.59,0.0,0.0,0.0
2022-11-14,02:38:08.312908,159.57,80.43,-92.56,4.3,4.8,1.2,-112.62,-19.56,76.77,0.0,0.0,0.0
2022-11-14,02:38:08.412900,159.74,81.04,-93.07,0.0,0.0,0.0,-112.6,-19.44,76.96,1.4000000000000001,-0.4,0.8999999999999999
2022-11-14,02:38:08.512983,156.71,81.21,-95.98,-0.4,-0.3,-0.4,-111.96,-18.93,77.11,4.3999999999999995,0.8,5.2
2022-11-14,02:38:08.796117,150.84,80.07,-101.09,-5.0,-4.2,-4.9,-111.37,-18.03,76.94,10.7,3.1,16.900000000000002
2022-11-14,02:38:08.799732,153.97,78.31,-93.65,-14.299999999999999,-12.4,-6.1,-111.42,-16.65,77.94,20.8,3.1,41.5
2022-11-14,02:38:08.812968,159.49,75.96,-77.48,-19.5,-23.200000000000003,4.3,-110.53,-13.4,80.28,37.4,3.4000000000000004,73.3
2022-11-14,02:38:08.912940,161.61,74.44,-63.06,-13.700000000000001,-26.0,11.4,-108.12,-10.25,83.62,53.6,14.2,90.10000000000001
2022-11-14,02:38:09.013016,159.21,75.7,-50.67,-1.3,-24.7,15.7,-105.27,-7.49,87.31,63.7,28.299999999999997,81.6
2022-11-14,02:38:09.112970,146.48,77.33,-50.91,12.5,-23.3,20.1,-102.31,-4.49,91.48,66.8,41.5,63.3
2022-11-14,02:38:09.436146,128.71,77.84,-58.85,29.2,-18.7,20.1,-99.5,-1.66,95.45,61.7,51.2,43.6
2022-11-14,02:38:09.440881,115.63,77.25,-63.11,39.300000000000004,-13.3,14.799999999999999,-96.54,0.28,98.15,51.1,46.300000000000004,28.499999999999996
2022-11-14,02:38:09.444914,109.17,76.4,-64.55,40.0,-9.700000000000001,15.1,-94.83,1.93,102.08,37.7,31.0,21.0
2022-11-14,02:38:09.512937,107.14,74.81,-62.74,35.4,-8.200000000000001,10.5,-93.99,4.3,110.04,30.3,13.900000000000002,21.3
2022-11-14,02:38:09.612936,109.31,74.1,-58.25,26.3,-0.6,12.0,-92.29,10.59,126.17,35.099999999999994,1.0999999999999999,19.400000000000002
2022-11-14,02:38:09.712971,113.71,77.3,-50.56,8.0,-1.5,6.6000000000000005,-89.14,15.46,145.86,24.5,8.5,17.8
2022-11-14,02:38:09.996344,115.97,79.01,-45.17,15.6,0.0,4.0,-84.31,18.07,159.29,-3.4000000000000004,10.8,15.8
2022-11-14,02:38:09.999866,120.11,78.29,-39.65,0.0,0.0,0.0,-81.02,19.66,165.81,-16.3,4.3999999999999995,10.8
2022-11-14,02:38:10.012912,120.55,78.32,-37.65,-7.000000000000001,6.5,0.2,-79.44,20.53,169.6,-21.0,5.0,8.200000000000001
2022-11-14,02:38:10.112914,121.62,77.64,-37.91,-1.0999999999999999,6.9,1.9,-78.59,20.69,171.55,-23.3,9.3,7.5
2022-11-14,02:38:10.212907,120.34,77.28,-40.29,-2.6,5.4,2.9000000000000004,-77.45,21.75,173.07,-0.1,0.2,-0.5
2022-11-14,02:38:10.312901,119.69,76.96,-41.13,0.6,3.3000000000000003,1.0999999999999999,-76.56,22.75,173.9,0.0,0.0,0.0
2022-11-14,02:38:10.636072,119.47,76.83,-43.47,0.0,0.0,0.0,-75.87,23.06,174.1,0.0,0.0,0.0
2022-11-14,02:38:10.641009,118.59,76.76,-45.17,0.0,0.0,0.0,-75.39,23.06,173.97,-0.5,-0.4,-0.2
2022-11-14,02:38:10.644979,118.22,76.79,-45.54,0.0,1.0999999999999999,0.4,-75.09,23.12,173.39,0.0,0.0,0.0
2022-11-14,02:38:10.712855,118.38,77.01,-45.64,0.0,0.2,0.0,-74.87,23.26,173.19,0.0,0.0,0.0
2022-11-14,02:38:10.812919,119.2,77.5,-45.67,0.5,-0.2,0.6,-74.74,23.42,173.25,0.0,0.0,0.0
2022-11-14,02:38:10.912849,119.02,77.42,-46.03,0.0,0.0,0.0,-74.73,23.49,173.35,0.0,0.0,0.0
2022-11-14,02:38:11.195727,118.82,77.3,-46.06,0.0,0.0,0.0,-74.67,23.49,173.39,0.0,0.0,0.0
2022-11-14,02:38:11.199194,118.45,77.28,-46.21,0.0,0.0,0.0,-74.99,23.39,173.19,-0.4,0.5,0.2
2022-11-14,02:38:11.212844,118.29,77.31,-46.43,0.0,0.0,0.0,-75.04,23.38,173.07,0.0,0.0,0.0
2022-11-14,02:38:11.312867,118.25,77.25,-46.61,0.0,0.0,0.0,-74.92,23.35,173.03,0.0,0.0,0.0
2022-11-14,02:38:11.412842,118.33,77.07,-46.98,0.0,0.0,0.0,-74.89,23.22,172.92,0.0,0.0,0.0
2022-11-14,02:38:11.512833,118.12,76.89,-47.25,0.0,0.0,0.0,-74.82,22.95,172.74,0.0,0.0,0.0
2022-11-14,02:38:11.836816,118.0,76.93,-46.95,0.0,0.0,0.0,-75.07,22.91,172.57,0.0,0.0,0.0
2022-11-14,02:38:11.841767,118.23,76.99,-46.43,0.0,0.0,0.0,-75.12,23.04,172.48,0.0,0.0,0.0
2022-11-14,02:38:11.845686,118.24,76.98,-46.24,0.0,0.0,0.0,-74.96,23.09,172.71,0.0,0.0,0.0
2022-11-14,02:38:11.912824,118.28,76.98,-46.17,0.0,0.0,0.0,-75.02,23.09,172.69,0.0,0.0,0.0
2022-11-14,02:38:12.012825,118.14,76.97,-46.32,0.0,0.0,0.0,-75.19,23.14,172.51,0.0,0.0,0.0
2022-11-14,02:38:12.112834,117.96,76.98,-46.3,0.0,0.0,0.0,-75.31,23.06,172.44,0.0,0.0,0.0
2022-11-14,02:38:12.394257,117.81,76.99,-46.42,0.0,0.0,0.0,-75.3,23.02,172.44,0.0,0.0,0.0
2022-11-14,02:38:12.397733,117.7,76.94,-46.43,0.0,0.0,0.0,-75.24,23.07,172.46,0.0,0.0,0.0
2022-11-14,02:38:12.412879,117.47,76.91,-46.85,0.0,0.0,0.0,-75.17,22.87,172.48,0.0,0.0,0.0
2022-11-14,02:38:12.512893,116.99,76.92,-47.12,1.0999999999999999,-1.7000000000000002,0.3,-74.87,22.9,172.32,1.0,-0.4,-0.1
2022-11-14,02:38:12.612928,116.43,76.91,-46.26,-0.1,0.2,-0.2,-75.38,22.31,172.23,5.7,-1.4000000000000001,-2.8000000000000003
2022-11-14,02:38:12.712876,116.79,77.0,-44.68,0.0,0.0,0.0,-76.42,20.37,173.23,6.6000000000000005,1.0999999999999999,-3.1
2022-11-14,02:38:13.035106,117.38,76.97,-44.59,-2.0,5.8999999999999995,-0.5,-77.55,17.92,174.94,3.5000000000000004,2.4,-3.5000000000000004
2022-11-14,02:38:13.040420,117.52,76.44,-46.36,1.4000000000000001,-3.2,0.6,-78.55,15.52,175.6,-0.5,-0.4,-5.6000000000000005
2022-11-14,02:38:13.044156,117.02,75.94,-47.42,0.0,-0.2,0.0,-80.88,12.73,174.63,-0.4,0.4,0.8
2022-11-14,02:38:13.112920,116.55,75.88,-47.88,-0.1,-0.3,0.0,-82.69,10.49,173.46,-3.5999999999999996,2.8000000000000003,3.9
2022-11-14,02:38:13.212871,116.43,75.98,-47.61,0.0,0.0,0.0,-83.41,8.99,172.51,0.0,0.0,0.0
2022-11-14,02:38:13.312861,116.02,76.08,-47.49,0.0,0.0,0.0,-83.51,7.42,171.65,-4.1000000000000005,1.0,2.7
2022-11-14,02:38:13.594604,115.88,76.27,-46.9,-0.1,0.3,0.0,-83.7,6.81,170.32,0.0,0.1,0.1
2022-11-14,02:38:13.598215,116.59,76.55,-46.23,0.0,-0.2,-0.1,-83.31,7.77,169.88,-1.7999999999999998,1.7000000000000002,6.7
2022-11-14,02:38:13.612896,117.7,76.54,-45.46,-0.8,2.1999999999999997,0.0,-81.88,10.25,170.05,-1.3,0.1,-1.4000000000000001
2022-11-14,02:38:13.712880,118.97,76.48,-46.22,0.2,-0.8,0.3,-80.77,12.56,171.02,0.0,0.0,0.0
2022-11-14,02:38:13.812898,118.69,76.15,-47.15,1.9,-4.2,1.4000000000000001,-79.79,15.02,171.85,0.7000000000000001,1.7000000000000002,-1.0
2022-11-14,02:38:13.912904,118.45,76.31,-46.63,2.7,-7.000000000000001,2.1,-78.48,16.96,172.41,5.5,2.7,-2.7
2022-11-14,02:38:14.236049,118.27,76.7,-45.09,0.0,0.0,0.0,-77.67,17.69,172.99,-0.2,0.0,-0.3
2022-11-14,02:38:14.240908,118.55,77.04,-43.95,-1.4000000000000001,4.9,-0.7000000000000001,-77.35,18.0,173.39,0.0,0.0,0.0
2022-11-14,02:38:14.244771,119.5,77.09,-43.57,0.8999999999999999,-1.7000000000000002,0.0,-76.9,18.22,173.75,-0.4,-0.3,0.0
2022-11-14,02:38:14.312859,119.46,76.93,-42.7,0.0,0.0,0.0,-76.81,18.74,173.86,-1.9,-1.6,-2.5
2022-11-14,02:38:14.412889,119.76,76.9,-42.14,-1.7000000000000002,2.8000000000000003,-0.1,-77.66,18.89,173.41,-0.3,1.0,0.7000000000000001
2022-11-14,02:38:14.512881,120.49,76.96,-42.07,-0.4,0.8,0.7000000000000001,-77.87,19.05,173.1,0.0,0.0,0.0
2022-11-14,02:38:14.796057,121.13,77.21,-41.57,0.6,-2.3,0.2,-77.77,19.15,172.3,-1.7999999999999998,3.1,2.1
2022-11-14,02:38:14.799586,120.85,77.21,-41.88,0.0,0.0,0.0,-76.13,19.6,171.75,0.8,-1.2,-1.3
2022-11-14,02:38:14.812821,120.44,77.03,-42.64,0.0,0.0,0.0,-75.56,20.59,171.93,2.1999999999999997,-5.1,-4.9
2022-11-14,02:38:14.912838,120.61,77.0,-42.81,0.0,0.0,0.0,-76.1,20.64,171.46,0.0,0.0,0.0
2022-11-14,02:38:15.012808,120.55,77.03,-43.12,0.0,0.0,0.0,-76.48,20.37,171.07,-1.0999999999999999,2.1999999999999997,1.7999999999999998
2022-11-14,02:38:15.112811,120.4,77.0,-43.49,0.0,0.0,0.0,-76.29,20.52,170.84,0.0,0.0,0.0
2022-11-14,02:38:15.436355,120.22,76.95,-43.81,0.0,0.0,0.0,-76.11,20.61,170.5,0.0,0.0,0.0
2022-11-14,02:38:15.441259,120.06,76.91,-44.13,0.0,0.0,0.0,-76.17,20.48,170.28,0.0,0.0,0.0
2022-11-14,02:38:15.445202,119.9,76.9,-44.26,0.0,0.0,0.0,-76.27,20.4,170.0,0.0,0.0,0.0
2022-11-14,02:38:15.512809,119.88,76.97,-44.1,0.0,0.0,0.0,-76.25,20.43,169.7,0.0,0.0,0.0
2022-11-14,02:38:15.612848,119.75,76.94,-44.17,0.0,0.0,0.0,-76.26,20.45,169.75,0.0,0.0,0.0
2022-11-14,02:38:15.712813,119.72,76.96,-44.24,0.0,0.0,0.0,-76.31,20.38,169.71,0.0,0.0,0.0
2022-11-14,02:38:15.995291,119.63,76.96,-44.27,0.0,0.0,0.0,-76.21,20.25,169.62,0.0,0.0,0.0
2022-11-14,02:38:15.998840,119.56,77.06,-44.19,0.0,0.0,0.0,-76.3,20.25,169.54,0.0,0.0,0.0
2022-11-14,02:38:16.012870,119.54,77.05,-44.54,0.0,0.0,0.0,-76.36,20.34,169.35,0.0,0.0,0.0
2022-11-14,02:38:16.112790,119.48,77.07,-44.7,0.0,0.0,0.0,-76.28,20.33,169.17,0.0,0.0,0.0
2022-11-14,02:38:16.212805,119.41,77.02,-45.0,0.0,0.0,0.0,-76.31,20.32,168.83,0.0,0.0,0.0
2022-11-14,02:38:16.312834,119.49,76.97,-45.53,0.0,0.0,0.0,-76.45,20.26,168.45,0.0,0.0,0.0
2022-11-14,02:38:16.636919,119.37,76.92,-46.15,0.0,0.0,0.0,-76.46,20.17,167.87,0.0,0.0,0.0
2022-11-14,02:38:16.641812,119.87,76.82,-46.66,0.0,0.0,0.0,-76.59,20.21,167.34,0.0,0.0,0.0
2022-11-14,02:38:16.645695,119.96,76.73,-47.5,-0.1,-1.0,0.0,-77.04,20.14,167.06,0.0,0.0,0.0
2022-11-14,02:38:16.712932,120.12,76.97,-46.8,0.0,-0.2,-0.1,-77.45,20.05,166.78,0.0,0.0,0.0
2022-11-14,02:38:16.812968,119.13,77.33,-45.99,1.0999999999999999,-5.0,-1.9,-77.82,19.86,166.42,-1.0999999999999999,0.5,-0.4
2022-11-14,02:38:16.912921,116.38,78.81,-43.57,7.6,-31.900000000000002,0.4,-78.7,19.6,164.96,-7.000000000000001,2.4,-1.3
2022-11-14,02:38:17.196535,97.75,75.43,-54.71,41.699999999999996,-106.80000000000001,30.2,-80.47,19.0,157.53,-22.0,8.3,-4.5
2022-11-14,02:38:17.200051,81.87,56.14,-60.19,70.8,-147.3,113.39999999999999,-83.63,16.39,141.6,-36.9,19.5,-9.0
2022-11-14,02:38:17.212850,68.92,27.89,-57.81,59.8,-84.1,184.20000000000002,-87.15,11.78,122.12,-33.4,25.2,-11.899999999999999
2022-11-14,02:38:17.312828,62.8,-0.7,-53.26,20.5,0.2,150.5,-89.16,7.12,109.17,-20.0,17.7,-6.2
2022-11-14,02:38:17.412867,64.17,-20.95,-50.16,-1.2,21.9,56.00000000000001,-89.78,5.55,103.65,-8.0,9.5,-0.4
2022-11-14,02:38:17.512886,67.26,-29.38,-49.6,-10.299999999999999,14.000000000000002,-18.0,-90.15,5.22,102.57,-1.0999999999999999,5.7,0.8
2022-11-14,02:38:17.836320,71.51,-24.72,-53.09,-17.7,3.3000000000000003,-92.9,-90.54,5.4,103.11,0.7000000000000001,6.4,1.5
2022-11-14,02:38:17.841204,76.33,-3.97,-57.73,-34.9,30.3,-163.79999999999998,-90.47,5.51,103.44,0.0,0.0,0.0
2022-11-14,02:38:17.845140,78.97,27.1,-62.8,-65.8,109.3,-157.8,-89.93,5.7,103.26,-0.8,-1.0999999999999999,-0.5
2022-11-14,02:38:17.912862,80.26,54.1,-66.61,-62.6,146.3,-79.3,-89.62,6.2,103.6,-2.4,-7.6,-0.8
2022-11-14,02:38:18.012847,81.88,73.08,-70.28,-38.1,106.3,-17.9,-89.75,6.76,105.1,0.0,0.0,0.0
2022-11-14,02:38:18.112849,90.16,81.78,-65.8,-9.1,48.4,-2.3,-89.65,7.44,109.98,8.1,-7.9,2.9000000000000004
2022-11-14,02:38:18.395183,105.62,83.52,-54.7,8.3,-9.9,-3.1,-90.94,11.54,126.26,27.800000000000004,-11.700000000000001,1.0
2022-11-14,02:38:18.398687,103.19,78.67,-55.82,26.1,-76.8,6.3,-91.16,16.42,145.08,28.799999999999997,11.700000000000001,4.6
2022-11-14,02:38:18.412858,92.02,62.25,-63.06,41.5,-153.9,65.8,-89.99,18.09,155.55,13.100000000000001,29.9,4.1000000000000005
2022-11-14,02:38:18.512814,82.45,31.62,-65.56,36.3,-139.79999999999998,181.5,-89.16,16.79,159.11,2.5,35.5,-0.1
2022-11-14,02:38:18.612829,75.28,-2.31,-63.9,17.5,-35.8,203.10000000000002,-89.24,15.74,159.64,-3.4000000000000004,36.0,-0.5
2022-11-14,02:38:18.712830,69.8,-27.47,-60.97,7.6,18.4,119.10000000000001,-89.38,15.69,159.65,0.7000000000000001,-1.9,1.2
2022-11-14,02:38:19.036372,69.48,-38.51,-57.83,3.3000000000000003,14.2,24.0,-89.47,15.6,159.5,1.2,0.2,0.4
2022-11-14,02:38:19.041356,67.44,-37.77,-56.12,-2.5,1.0999999999999999,-50.6,-89.49,15.7,159.79,3.8,2.0,1.6
2022-11-14,02:38:19.045253,70.51,-25.31,-59.7,-10.2,-2.7,-118.30000000000001,-89.44,15.79,160.13,0.0,0.0,0.0
2022-11-14,02:38:19.112863,75.52,-3.23,-62.52,-20.9,38.2,-147.4,-89.41,15.47,160.09,-0.3,0.2,-0.4
2022-11-14,02:38:19.212836,78.35,21.55,-64.06,-33.1,79.3,-135.7,-89.78,15.09,159.59,-0.1,2.8000000000000003,0.3
2022-11-14,02:38:19.312851,82.2,46.85,-65.71,-39.900000000000006,106.89999999999999,-87.1,-89.42,15.23,160.24,0.0,0.0,0.0
2022-11-14,02:38:19.595616,86.2,66.02,-65.57,-34.0,94.8,-32.5,-89.34,15.42,161.31,-1.6,0.6,-0.5
2022-11-14,02:38:19.599139,92.77,76.31,-62.55,-18.7,55.900000000000006,-5.1,-89.29,16.05,161.93,0.1,0.3,-0.3
2022-11-14,02:38:19.612847,100.22,80.54,-57.3,-0.2,3.2,2.0,-89.63,16.12,162.28,-0.2,4.1000000000000005,-1.5
2022-11-14,02:38:19.712809,97.7,74.82,-60.1,19.2,-72.6,17.4,-90.31,15.9,161.88,-1.4000000000000001,10.6,-1.4000000000000001
2022-11-14,02:38:19.812815,90.05,56.15,-65.96,27.800000000000004,-124.50000000000001,72.6,-90.76,15.55,161.18,-0.8,15.8,-0.6
2022-11-14,02:38:19.912803,84.96,28.7,-66.84,25.7,-105.2,143.1,-91.01,15.1,160.48,-2.9000000000000004,19.6,-0.6
2022-11-14,02:38:20.250836,74.69,-1.13,-63.22,13.700000000000001,-41.0,174.4,-91.1,15.19,159.61,0.2,-0.5,0.2
2022-11-14,02:38:20.255977,67.55,-23.94,-58.97,-0.5,10.0,116.39999999999999,-90.99,15.47,159.19,0.0,0.0,0.0
2022-11-14,02:38:20.259732,67.08,-37.67,-55.78,-9.2,19.400000000000002,35.099999999999994,-91.09,15.46,158.69,1.2,0.4,2.0
2022-11-14,02:38:20.312854,67.69,-39.61,-54.81,-8.9,8.6,-39.7,-90.65,15.67,158.82,0.0,0.0,0.0
2022-11-14,02:38:20.412861,69.55,-26.64,-56.42,-15.2,3.8,-110.3,-90.21,15.64,159.24,0.0,0.0,0.0
2022-11-14,02:38:20.512840,75.63,-2.66,-59.66,-30.5,45.300000000000004,-152.0,-89.61,15.47,159.89,0.0,-1.6,-0.8999999999999999
2022-11-14,02:38:20.797806,80.45,26.55,-62.88,-43.8,97.8,-133.6,-89.44,15.45,160.47,-0.5,0.0,-0.3
2022-11-14,02:38:20.801506,85.9,53.78,-64.83,-42.0,107.2,-64.7,-89.22,15.52,160.88,0.0,0.0,0.0
2022-11-14,02:38:20.812843,94.97,69.87,-65.07,-22.0,70.6,-10.7,-88.93,15.6,161.82,-0.2,0.0,0.0
2022-11-14,02:38:20.912820,104.66,73.46,-59.89,-7.6,35.0,1.2,-89.15,15.85,162.17,-2.8000000000000003,2.7,-0.3
2022-11-14,02:38:21.012793,109.19,72.98,-54.72,1.7999999999999998,6.4,6.7,-89.33,15.95,161.66,-2.1,5.8999999999999995,-0.8
2022-11-14,02:38:21.112819,109.37,72.77,-50.24,-15.5,2.3,6.4,-89.88,15.58,160.96,-3.1,8.5,-0.8
2022-11-14,02:38:21.437700,110.28,73.83,-48.85,0.5,0.5,-0.1,-90.1,15.49,160.08,-2.4,10.8,1.3
2022-11-14,02:38:21.442594,114.32,74.4,-46.71,3.2,3.2,-2.8000000000000003,-89.8,15.48,159.87,0.0,0.0,0.0
2022-11-14,02:38:21.446793,115.08,74.65,-47.42,2.6,-0.8,-1.0999999999999999,-89.28,15.5,160.31,-0.3,-0.1,-0.5
2022-11-14,02:38:21.512813,114.9,74.63,-47.1,0.0,0.8,-0.2,-89.2,15.28,160.64,0.0,0.0,0.0
2022-11-14,02:38:21.612796,115.23,74.46,-46.77,0.0,0.0,0.0,-89.17,15.17,160.71,0.0,0.0,0.0
2022-11-14,02:38:21.712752,115.66,74.33,-46.82,0.0,0.0,0.0,-89.39,14.99,160.73,-1.5,-0.3,-0.7000000000000001
2022-11-14,02:38:21.995884,116.33,74.16,-46.92,0.0,0.0,0.0,-89.72,14.87,160.29,0.0,0.0,0.0
2022-11-14,02:38:21.999302,116.53,74.03,-47.19,0.0,0.0,0.0,-90.17,15.02,159.74,0.0,0.0,0.0
2022-11-14,02:38:22.012763,116.69,73.94,-47.31,0.0,0.0,0.0,-90.58,15.13,159.11,1.7000000000000002,0.7000000000000001,0.7000000000000001
2022-11-14,02:38:22.112746,116.7,74.06,-47.37,0.0,0.0,0.0,-90.79,15.08,158.86,0.0,0.0,0.0
2022-11-14,02:38:22.212750,116.62,74.22,-47.39,0.0,0.0,0.0,-91.05,14.72,158.72,0.0,0.0,0.0
2022-11-14,02:38:22.312786,116.55,74.39,-47.11,0.0,0.0,0.0,-91.33,14.43,158.64,0.0,0.0,0.0
2022-11-14,02:38:22.635223,113.24,74.3,-45.05,0.6,-8.9,5.2,-91.6,14.12,158.44,-0.4,0.0,-0.1
2022-11-14,02:38:22.640372,108.17,72.53,-43.63,3.8,-4.6,2.6,-91.92,12.08,153.95,-18.0,2.9000000000000004,-0.5
2022-11-14,02:38:22.644151,102.38,69.59,-40.68,12.0,-6.0,2.6,-91.0,5.33,137.98,-31.6,7.7,-3.5999999999999996
2022-11-14,02:38:22.712810,98.9,66.49,-33.11,18.4,-1.4000000000000001,-13.0,-89.51,-2.19,120.13,-21.4,-1.4000000000000001,-8.799999999999999
2022-11-14,02:38:22.812791,94.06,65.65,-24.44,11.200000000000001,12.5,-42.1,-88.27,-7.03,110.65,-7.3,-23.3,-22.900000000000002
2022-11-14,02:38:22.912812,86.89,65.23,-21.58,-11.3,15.6,-63.2,-86.67,-11.43,107.1,-0.7000000000000001,-42.1,-61.0
2022-11-14,02:38:23.194739,80.87,61.32,-24.75,-18.099999999999998,2.8000000000000003,-67.5,-85.05,-14.35,105.38,2.4,-38.3,-90.3
2022-11-14,02:38:23.198367,78.7,55.02,-27.85,-4.6,3.1,-53.0,-83.16,-15.67,104.76,2.7,-26.8,-112.5
2022-11-14,02:38:23.212821,74.09,47.31,-30.68,-7.000000000000001,15.8,-30.4,-81.7,-19.25,103.89,4.1000000000000005,-15.299999999999999,-110.4
2022-11-14,02:38:23.312830,72.64,41.61,-32.33,-8.5,6.6000000000000005,-30.5,-80.65,-21.64,103.84,3.4000000000000004,-2.5,-85.9
2022-11-14,02:38:23.412849,72.32,38.19,-32.2,-7.9,8.200000000000001,-20.3,-79.35,-22.09,103.55,-2.1999999999999997,7.7,-51.800000000000004
2022-11-14,02:38:23.512871,72.73,37.2,-32.1,-10.7,7.8,-4.2,-78.42,-20.34,102.2,-5.8999999999999995,15.2,-11.700000000000001
2022-11-14,02:38:23.836174,74.94,40.06,-30.63,-12.2,10.299999999999999,12.3,-78.72,-18.96,102.04,-8.5,20.9,32.300000000000004
2022-11-14,02:38:23.841021,78.2,47.51,-28.24,-11.5,9.5,23.599999999999998,-79.79,-16.26,102.25,-11.600000000000001,28.9,80.9
2022-11-14,02:38:23.844908,81.48,59.65,-26.45,-20.7,12.1,38.0,-81.31,-13.0,102.58,-13.3,37.2,117.6
2022-11-14,02:38:23.912835,86.62,70.67,-24.13,-23.1,28.499999999999996,74.5,-82.55,-9.79,101.86,-16.1,42.6,124.9
2022-11-14,02:38:24.012865,92.47,72.1,-23.09,-34.4,28.999999999999996,68.0,-84.36,-6.33,101.01,-14.799999999999999,38.2,110.60000000000001
2022-11-14,02:38:24.112799,99.03,70.88,-29.51,-38.4,19.6,31.8,-86.43,-3.38,101.39,-9.1,31.8,78.9
2022-11-14,02:38:24.395849,104.77,71.45,-35.96,-31.4,20.200000000000003,-0.5,-87.73,-1.09,102.87,0.0,22.6,40.8
2022-11-14,02:38:24.399637,107.54,72.28,-39.04,-11.700000000000001,8.4,-2.9000000000000004,-88.48,2.45,108.04,12.3,2.8000000000000003,15.9
2022-11-14,02:38:24.412827,106.01,72.67,-37.87,-16.7,8.5,-2.1999999999999997,-89.17,8.6,122.32,33.4,-19.5,9.1
2022-11-14,02:38:24.513429,108.79,73.01,-36.89,-19.6,13.200000000000001,-1.4000000000000001,-88.69,13.37,140.18,41.9,-19.2,6.6000000000000005
2022-11-14,02:38:24.614631,109.76,72.64,-37.15,0.0,0.0,0.0,-87.53,15.08,152.62,30.8,-12.9,5.800000000000001
2022-11-14,02:38:24.714643,109.85,72.86,-36.34,-0.3,0.8,0.0,-86.05,14.96,158.59,21.4,-13.100000000000001,3.9
2022-11-14,02:38:25.091834,110.29,73.35,-35.59,0.0,0.0,0.0,-85.78,15.27,160.74,16.8,-15.8,1.7999999999999998
2022-11-14,02:38:25.096730,110.98,73.44,-35.34,0.0,0.0,0.0,-85.77,15.33,161.71,0.0,0.0,0.0
2022-11-14,02:38:25.100750,111.55,73.56,-34.91,0.0,0.0,0.0,-85.69,15.12,162.33,-0.2,-0.1,-0.1
2022-11-14,02:38:25.112952,111.67,73.62,-34.72,0.0,-0.1,0.1,-86.01,15.1,162.38,0.0,0.0,0.0
2022-11-14,02:38:25.212769,111.53,73.58,-34.64,0.0,0.0,0.0,-86.21,15.34,162.33,0.8999999999999999,0.0,0.1
2022-11-14,02:38:25.312784,111.51,73.7,-34.32,0.0,0.0,0.0,-86.3,15.66,162.15,2.3,-0.8,-0.1
2022-11-14,02:38:25.594781,111.99,73.86,-33.86,0.0,0.0,0.0,-86.32,15.73,162.02,5.5,-3.2,-0.5
2022-11-14,02:38:25.598369,112.38,73.83,-33.43,0.1,-0.2,0.1,-86.56,15.43,161.9,0.0,0.0,0.0
2022-11-14,02:38:25.612811,112.18,73.6,-32.68,0.0,0.0,0.0,-87.07,15.02,161.61,0.0,0.0,0.0
2022-11-14,02:38:25.712748,111.86,73.39,-31.18,0.0,0.0,0.0,-87.86,14.59,160.89,1.2,-2.3,-1.6
2022-11-14,02:38:25.812807,110.73,72.83,-28.5,5.4,-3.2,-1.7000000000000002,-89.48,12.77,158.23,-4.5,-6.6000000000000005,-7.3999999999999995
2022-11-14,02:38:25.912805,110.19,72.48,-22.41,6.9,0.2,-14.499999999999998,-91.34,7.09,148.55,-13.600000000000001,-13.3,-15.299999999999999
2022-11-14,02:38:26.236613,103.41,70.24,-16.42,10.9,-3.6999999999999997,-45.1,-91.87,-1.08,136.86,-3.1,-28.799999999999997,-37.4
2022-11-14,02:38:26.241853,89.29,64.84,-14.79,-4.8,-10.8,-79.9,-91.91,-8.6,129.43,3.4000000000000004,-31.0,-85.1
2022-11-14,02:38:26.245867,83.88,56.15,-16.44,-16.7,-19.5,-77.9,-90.21,-12.0,124.89,7.5,-22.900000000000002,-121.39999999999999
2022-11-14,02:38:26.312823,78.3,43.42,-19.36,-7.5,-8.7,-47.3,-88.65,-8.64,126.2,15.8,-18.099999999999998,-138.0
2022-11-14,02:38:26.412810,72.55,30.4,-21.39,-4.2,12.8,-21.8,-90.36,0.4,135.27,24.0,-8.3,-129.8
2022-11-14,02:38:26.512788,70.28,22.03,-21.57,-8.799999999999999,10.2,-13.600000000000001,-91.56,9.24,146.22,19.8,5.6000000000000005,-87.9
2022-11-14,02:38:26.796937,68.7,19.33,-21.62,-14.799999999999999,1.6,6.2,-89.79,16.51,154.06,6.4,20.7,-34.4
2022-11-14,02:38:26.800454,70.94,22.92,-20.95,-5.4,-0.7000000000000001,27.800000000000004,-88.71,21.79,158.17,-5.0,34.300000000000004,44.7
2022-11-14,02:38:26.812818,75.41,34.0,-16.74,-4.8,-0.8,45.1,-86.32,24.45,160.62,-7.1,54.1,128.7
2022-11-14,02:38:26.912755,83.26,51.77,-15.59,-34.2,9.8,73.4,-82.97,25.55,162.76,-4.2,60.3,167.3
2022-11-14,02:38:27.012769,93.11,63.14,-17.34,-42.0,31.8,109.5,-82.0,23.83,163.74,-2.3,60.6,165.0
2022-11-14,02:38:27.112772,95.86,63.59,-23.99,-47.9,24.9,65.60000000000001,-81.83,21.83,163.0,-5.2,58.8,130.8
2022-11-14,02:38:27.442895,103.53,63.67,-38.87,-38.7,19.6,13.700000000000001,-80.66,21.32,162.73,-0.5,49.2,77.4
2022-11-14,02:38:27.448415,110.06,68.26,-42.43,-21.2,12.7,-1.4000000000000001,-79.38,20.8,162.75,5.8999999999999995,32.9,30.3
2022-11-14,02:38:27.452219,111.78,71.71,-41.02,-16.7,6.6000000000000005,5.1,-79.52,21.18,163.08,10.0,20.0,12.0
2022-11-14,02:38:27.512773,110.12,70.69,-42.27,-24.8,1.2,9.2,-79.22,21.3,163.38,13.100000000000001,11.899999999999999,7.199999999999999
2022-11-14,02:38:27.612794,109.79,70.54,-43.14,-25.900000000000002,2.0,6.9,-79.16,21.43,163.72,14.6,8.799999999999999,5.2
2022-11-14,02:38:27.712804,109.18,70.66,-43.76,-25.1,-2.9000000000000004,7.9,-79.47,21.07,164.09,13.900000000000002,11.4,7.000000000000001
2022-11-14,02:38:27.998973,106.45,70.96,-43.77,-24.7,-10.9,9.2,-79.08,20.69,164.78,10.7,12.9,6.4
2022-11-14,02:38:28.002561,102.6,69.77,-44.57,-23.200000000000003,-10.8,10.7,-79.04,20.26,164.82,5.7,17.9,7.9
2022-11-14,02:38:28.012774,101.04,67.44,-45.03,-23.799999999999997,-6.3,11.5,-77.86,20.76,164.46,0.5,-1.4000000000000001,-0.3
2022-11-14,02:38:28.112844,100.31,65.89,-45.22,-27.6,-0.7000000000000001,9.8,-76.97,21.34,163.86,3.2,-7.9,-1.6
2022-11-14,02:38:28.212778,100.15,65.67,-45.92,-36.4,7.5,6.1,-77.29,21.52,162.55,4.5,-12.6,-1.7000000000000002
2022-11-14,02:38:28.312798,103.91,66.28,-47.35,-38.3,7.1,6.0,-77.69,21.71,161.55,7.1,-15.0,-0.8
2022-11-14,02:38:28.644853,106.26,66.87,-48.32,-36.6,3.5999999999999996,6.4,-78.21,21.56,161.18,0.0,0.0,0.0
2022-11-14,02:38:28.649655,107.03,67.13,-49.21,0.0,0.0,0.0,-78.66,21.41,160.6,-1.2,0.7000000000000001,-0.7000000000000001
2022-11-14,02:38:28.653468,107.22,67.54,-49.28,0.0,0.1,0.3,-79.59,21.0,159.88,0.0,0.3,0.1
2022-11-14,02:38:28.712784,107.45,67.62,-49.83,-2.3,0.1,1.4000000000000001,-80.47,20.63,159.51,-1.0999999999999999,2.9000000000000004,2.3
2022-11-14,02:38:28.812787,106.91,68.06,-52.01,-6.0,3.8,2.8000000000000003,-81.26,20.02,156.65,-14.099999999999998,7.6,0.8999999999999999
2022-11-14,02:38:28.912834,107.13,68.33,-56.79,0.0,0.5,-0.4,-82.79,18.06,143.65,-29.099999999999998,14.499999999999998,-2.4
2022-11-14,02:38:29.196124,108.53,68.72,-59.22,2.7,0.3,-4.0,-85.27,14.54,127.76,-21.2,9.6,-5.5
2022-11-14,02:38:29.199810,110.24,69.87,-58.17,0.2,-1.0999999999999999,0.7000000000000001,-86.73,11.18,119.66,-7.8,-3.5999999999999996,-2.7
2022-11-14,02:38:29.212791,108.72,68.74,-58.36,1.7000000000000002,-18.3,14.000000000000002,-88.02,9.89,117.71,-5.2,-8.4,-2.1
2022-11-14,02:38:29.312759,99.43,56.92,-61.37,0.0,-37.3,52.5,-90.0,7.66,113.64,-13.900000000000002,-3.8,-4.3
2022-11-14,02:38:29.412800,82.26,38.2,-69.05,-25.3,-17.1,84.1,-91.24,4.32,107.62,-18.099999999999998,1.7999999999999998,0.8999999999999999
2022-11-14,02:38:29.512749,66.45,22.23,-83.86,-44.6,46.300000000000004,68.5,-92.21,2.8,104.6,-22.0,18.099999999999998,2.1
2022-11-14,02:38:29.841292,57.01,13.56,-104.21,-28.299999999999997,97.1,42.5,-92.28,2.61,101.48,-16.0,31.8,6.2
2022-11-14,02:38:29.847309,45.76,10.66,-127.27,12.0,110.5,37.0,-92.51,3.07,98.29,-6.2,32.800000000000004,6.5
2022-11-14,02:38:29.857803,37.34,9.27,-147.06,27.1,62.6,27.3,-92.39,4.82,95.4,-1.7000000000000002,26.400000000000002,7.8
2022-11-14,02:38:29.913997,34.23,8.23,-153.43,-15.5,-26.3,9.3,-91.85,6.6,92.39,-1.7999999999999998,22.5,7.9
2022-11-14,02:38:30.013993,34.25,4.28,-141.55,-48.1,-118.10000000000001,7.7,-91.25,6.72,89.84,-0.8999999999999999,3.4000000000000004,-3.3000000000000003
2022-11-14,02:38:30.114396,33.91,-1.57,-114.17,-6.7,-187.1,21.9,-91.12,5.59,88.26,0.0,0.0,0.0
2022-11-14,02:38:30.453445,29.93,-5.85,-79.74,85.3,-179.7,34.300000000000004,-90.44,5.11,89.64,-0.8999999999999999,-2.1,-0.1
2022-11-14,02:38:30.457000,23.67,-7.83,-45.45,159.7,-108.7,29.5,-89.96,5.08,92.96,-1.7000000000000002,-7.1,-0.2
2022-11-14,02:38:30.460113,20.13,-10.01,-14.62,181.6,-7.3999999999999995,19.5,-89.62,4.68,97.23,2.7,-12.2,0.1
2022-11-14,02:38:30.512772,20.45,-13.38,12.91,134.7,79.10000000000001,8.4,-89.56,4.6,103.08,11.1,-16.8,0.8999999999999999
2022-11-14,02:38:30.612790,24.96,-16.19,37.88,56.10000000000001,111.00000000000001,-7.199999999999999,-89.21,5.21,114.32,34.0,-26.0,6.800000000000001
2022-11-14,02:38:30.712755,31.49,-16.4,58.21,-7.9,78.10000000000001,-13.8,-88.21,9.02,136.58,62.0,-12.1,8.4
2022-11-14,02:38:31.035810,36.73,-14.82,70.04,-18.0,3.3000000000000003,-13.900000000000002,-87.25,12.2,158.49,51.0,17.299999999999997,7.199999999999999
2022-11-14,02:38:31.040944,42.87,-12.56,66.6,-4.6,-68.4,-21.4,-85.82,14.07,170.99,20.0,27.6,6.2
2022-11-14,02:38:31.044849,50.36,-8.58,47.84,-28.999999999999996,-121.7,-25.8,-84.34,15.03,175.49,-2.1,26.1,5.2
2022-11-14,02:38:31.112802,53.33,-1.8,19.07,-95.1,-128.9,-18.7,-82.74,15.63,175.85,-14.000000000000002,23.599999999999998,4.5
2022-11-14,02:38:31.212757,52.34,4.71,-13.73,-158.7,-73.6,-0.8999999999999999,-81.42,16.15,174.79,0.0,0.8,-0.8999999999999999
2022-11-14,02:38:31.312719,48.96,8.44,-48.25,-166.1,19.2,15.4,-81.28,16.55,172.96,-1.0,5.7,-2.8000000000000003
2022-11-14,02:38:31.603057,47.85,9.58,-80.38,-111.3,101.2,16.400000000000002,-81.95,16.77,170.12,-1.7999999999999998,10.100000000000001,-4.5
2022-11-14,02:38:31.606659,51.19,12.74,-106.08,-30.599999999999998,132.5,-2.1999999999999997,-82.89,16.6,165.36,-1.2,14.7,-3.4000000000000004
2022-11-14,02:38:31.612746,55.71,20.2,-124.63,35.699999999999996,109.89999999999999,-9.8,-83.2,16.66,160.53,0.6,0.3,-0.4
2022-11-14,02:38:31.712761,57.32,27.7,-138.4,51.0,46.800000000000004,-10.2,-83.77,17.06,156.16,3.5999999999999996,1.6,-0.2
2022-11-14,02:38:31.812791,60.18,32.77,-141.33,15.9,-29.2,-11.600000000000001,-84.2,17.1,152.77,3.6999999999999997,5.4,0.1
2022-11-14,02:38:31.912812,66.77,33.79,-130.51,-8.7,-81.89999999999999,-7.9,-86.26,15.86,144.32,-19.900000000000002,21.4,-5.2
2022-11-14,02:38:32.243405,73.21,35.1,-114.07,6.2,-93.30000000000001,-3.9,-89.36,10.33,123.69,-29.2,40.300000000000004,-6.800000000000001
2022-11-14,02:38:32.248282,77.23,37.71,-98.83,20.200000000000003,-76.7,-11.200000000000001,-90.14,3.91,104.98,-13.5,32.300000000000004,-4.2
2022-11-14,02:38:32.252367,81.53,44.55,-85.05,39.5,-80.10000000000001,-28.9,-90.22,1.39,96.91,-2.5,18.5,-0.1
2022-11-14,02:38:32.312725,80.82,44.66,-67.88,55.800000000000004,-118.10000000000001,48.3,-90.8,1.15,94.12,2.1,19.2,1.0
2022-11-14,02:38:32.412796,74.95,23.22,-62.42,40.400000000000006,-138.6,152.8,-90.8,0.63,93.9,-2.1,20.3,1.7999999999999998
2022-11-14,02:38:32.512742,72.92,-9.17,-60.12,8.799999999999999,-80.0,235.0,-91.19,0.0,94.41,-6.800000000000001,25.5,-1.2
2022-11-14,02:38:32.797111,71.97,-37.47,-56.55,9.2,-4.8,179.1,-92.21,-0.54,94.51,-6.7,28.299999999999997,0.0
2022-11-14,02:38:32.800613,71.19,-46.65,-53.65,35.099999999999994,-18.7,24.7,-92.72,-0.29,94.83,-4.9,25.2,4.3
2022-11-14,02:38:32.812799,79.69,-36.65,-54.47,36.4,-19.8,-126.2,-92.72,0.15,95.57,-2.5,28.000000000000004,4.5
2022-11-14,02:38:32.912769,89.34,-10.17,-56.45,-7.8,44.0,-243.7,-92.66,0.7,96.4,-1.2,32.5,4.5
2022-11-14,02:38:33.012778,103.1,28.06,-63.92,-93.4,177.6,-191.1,-92.08,2.13,96.85,0.8999999999999999,26.8,7.1
2022-11-14,02:38:33.112809,109.1,62.69,-90.2,-114.9,222.29999999999998,-11.1,-91.2,3.59,97.43,-0.5,18.6,4.7
2022-11-14,02:38:33.436204,81.3,60.32,-161.86,-119.0,116.7,125.8,-90.74,3.82,98.01,-3.0,17.0,0.0
2022-11-14,02:38:33.441054,80.01,28.44,-177.15,-121.9,3.1,240.0,-90.83,1.79,97.14,-6.9,22.6,-2.4
2022-11-14,02:38:33.445148,75.95,-9.42,-171.95,-16.8,-92.60000000000001,294.8,-91.89,-0.37,95.49,-8.7,33.4,-1.7999999999999998
2022-11-14,02:38:33.512749,59.68,-43.2,-152.38,102.1,-153.5,214.1,-92.6,-1.23,94.21,-10.7,38.7,0.8999999999999999
2022-11-14,02:38:33.612751,23.85,-59.21,-107.32,127.1,-176.5,77.7,-93.28,-1.78,93.67,-13.200000000000001,38.800000000000004,3.0
2022-11-14,02:38:33.712729,7.61,-51.9,-70.69,101.2,-190.1,-33.900000000000006,-93.8,-2.09,94.05,-11.1,38.1,3.6999999999999997
2022-11-14,02:38:33.995102,25.64,-40.29,-61.44,75.5,-170.1,-138.6,-93.99,-2.35,94.46,0.0,0.0,0.0
2022-11-14,02:38:33.998671,55.83,-24.9,-63.25,50.3,-103.2,-224.10000000000002,-93.53,-1.89,95.03,-0.7000000000000001,-0.3,-0.3
2022-11-14,02:38:34.012774,75.21,0.7,-65.66,15.9,15.8,-243.4,-93.45,-1.04,95.48,-1.0,-4.3,-1.7000000000000002
2022-11-14,02:38:34.112718,81.06,29.45,-63.7,-37.6,93.30000000000001,-158.8,-93.51,-0.16,96.58,3.0,-10.299999999999999,-2.4
2022-11-14,02:38:34.212733,86.13,51.93,-66.15,-38.1,65.7,-50.8,-93.64,0.86,100.18,10.2,-14.899999999999999,-4.0
2022-11-14,02:38:34.312697,86.38,63.71,-68.61,1.3,-24.7,4.2,-93.15,0.68,102.48,5.1,-6.6000000000000005,-2.9000000000000004
2022-11-14,02:38:34.636544,85.45,64.15,-67.82,20.8,-78.8,20.200000000000003,-92.83,-0.39,102.22,2.6,-0.8999999999999999,-3.4000000000000004
2022-11-14,02:38:34.641581,85.18,56.16,-66.02,34.599999999999994,-141.79999999999998,61.6,-93.09,0.5,104.32,11.4,-6.800000000000001,2.0
2022-11-14,02:38:34.645436,78.66,37.03,-66.47,35.9,-183.5,166.9,-93.78,5.09,116.55,30.0,-14.7,0.8999999999999999
2022-11-14,02:38:34.712684,68.61,9.04,-65.54,16.5,-113.7,265.7,-94.66,11.08,133.34,33.5,-0.4,1.7000000000000002
2022-11-14,02:38:34.812723,56.24,-21.07,-60.97,-18.4,7.3,240.89999999999998,-93.87,14.89,146.51,24.8,9.9,4.3
2022-11-14,02:38:34.912718,46.96,-47.56,-53.51,-57.8,57.099999999999994,125.8,-91.76,16.11,154.17,17.4,7.6,2.7
2022-11-14,02:38:35.194791,29.6,-66.17,-41.39,-84.0,46.300000000000004,13.5,-90.02,16.72,158.93,19.3,6.6000000000000005,0.8999999999999999
2022-11-14,02:38:35.198360,20.05,-74.76,-43.79,-97.1,25.5,-74.1,-88.89,16.89,161.94,19.8,10.6,1.7999999999999998
2022-11-14,02:38:35.212794,60.2,-67.9,-103.04,-93.89999999999999,18.0,-137.20000000000002,-87.24,17.09,162.85,20.599999999999998,11.1,4.5
2022-11-14,02:38:35.313755,81.32,-33.23,-138.95,-50.1,15.7,-196.0,-84.94,16.96,163.58,20.0,8.0,5.3
2022-11-14,02:38:35.414617,87.27,12.22,-155.32,55.50000000000001,-8.7,-181.1,-83.17,15.89,164.84,11.0,8.200000000000001,2.6
2022-11-14,02:38:35.514624,66.45,53.43,-163.1,116.7,-64.3,-96.7,-83.33,16.05,164.72,1.0,13.3,-0.4
2022-11-14,02:38:35.888739,62.93,72.72,-147.67,109.7,-142.1,-51.7,-83.78,16.12,164.79,-2.1,19.400000000000002,0.0
2022-11-14,02:38:35.893875,110.07,71.99,-86.05,101.29999999999998,-185.60000000000002,13.600000000000001,-83.86,16.26,164.72,-0.7000000000000001,22.1,-0.2
2022-11-14,02:38:35.897744,111.86,53.59,-68.6,58.3,-183.9,74.9,-84.23,16.55,165.02,1.0999999999999999,24.0,-0.7000000000000001
2022-11-14,02:38:35.912733,110.07,34.8,-67.89,18.4,-134.20000000000002,78.2,-85.02,17.05,165.11,4.7,25.1,-0.4
2022-11-14,02:38:36.012724,107.81,25.01,-68.57,-6.9,-91.4,44.1,-85.0,17.03,165.2,0.0,0.0,0.0
2022-11-14,02:38:36.112763,106.62,24.69,-70.38,-18.9,-42.3,-10.5,-84.81,17.54,165.45,3.0,-2.1999999999999997,-0.7000000000000001
2022-11-14,02:38:36.395090,110.24,34.91,-72.88,-32.800000000000004,33.300000000000004,-59.3,-84.81,17.39,166.09,0.0,0.0,0.0
2022-11-14,02:38:36.398712,111.63,54.99,-76.19,-61.0,99.2,-44.5,-84.6,16.86,166.11,0.6,-0.2,0.3
2022-11-14,02:38:36.412748,99.21,75.19,-112.82,-91.8,83.89999999999999,43.2,-83.72,16.37,166.31,4.3999999999999995,-3.6999999999999997,-0.5
2022-11-14,02:38:36.512718,72.02,60.62,-162.81,-158.6,-34.5,132.9,-83.7,15.26,166.28,2.1999999999999997,-4.0,-2.7
2022-11-14,02:38:36.612729,74.91,23.83,-162.54,-137.6,-129.6,277.09999999999997,-84.02,14.12,164.45,-2.3,1.2,-3.1
2022-11-14,02:38:36.712750,70.2,-22.3,-150.39,47.099999999999994,-166.9,317.6,-84.85,14.32,161.58,-6.6000000000000005,10.7,-2.1999999999999997
2022-11-14,02:38:37.034978,47.14,-58.49,-119.66,156.5,-163.7,175.5,-85.64,14.95,160.54,-11.899999999999999,17.8,0.0
2022-11-14,02:38:37.039936,11.83,-66.15,-64.03,140.2,-191.79999999999998,35.199999999999996,-86.08,15.58,160.35,-14.499999999999998,20.5,2.7
2022-11-14,02:38:37.043948,21.57,-54.44,-49.41,123.4,-212.4,-83.8,-85.96,17.13,161.15,1.4000000000000001,-0.3,-0.8999999999999999
2022-11-14,02:38:37.112741,42.94,-32.93,-52.99,77.8,-172.0,-193.0,-86.03,17.91,161.86,0.1,-0.3,0.1
2022-11-14,02:38:37.212712,57.26,-4.65,-56.96,2.7,-80.0,-246.0,-85.65,17.94,161.96,0.5,-3.6999999999999997,0.1
2022-11-14,02:38:37.312739,68.95,23.24,-59.25,-45.5,-0.7000000000000001,-173.0,-84.68,18.15,161.72,2.8000000000000003,-8.799999999999999,0.8
2022-11-14,02:38:37.597490,76.2,40.76,-61.21,-44.7,-21.9,-52.0,-83.78,17.98,161.62,0.0,0.0,0.0
2022-11-14,02:38:37.601007,76.07,48.23,-65.27,-24.0,-81.39999999999999,10.2,-83.22,17.92,161.72,-1.5,1.9,0.0
2022-11-14,02:38:37.612797,73.26,47.39,-68.39,-6.9,-106.4,32.300000000000004,-83.78,17.93,160.99,-3.5999999999999996,7.1,-2.1999999999999997
2022-11-14,02:38:37.712705,71.72,44.91,-69.29,-2.1999999999999997,-107.3,30.3,-84.11,18.46,160.0,-1.7999999999999998,9.9,-1.6
2022-11-14,02:38:37.812714,71.84,43.72,-69.25,-2.1,-101.4,23.5,-84.24,18.34,159.45,0.0,0.0,0.0
2022-11-14,02:38:37.912762,71.96,43.7,-69.06,-0.1,0.1,-0.2,-84.34,17.97,159.88,0.0,0.0,0.0
2022-11-14,02:38:38.233877,72.45,43.95,-69.14,-2.6,-0.7000000000000001,-1.7999999999999998,-84.3,17.85,160.39,-2.1999999999999997,0.3,0.0
2022-11-14,02:38:38.238850,72.32,44.09,-69.31,-2.8000000000000003,-4.6,0.1,-84.22,17.53,160.41,0.0,0.0,0.0
2022-11-14,02:38:38.242669,72.41,43.81,-69.47,-2.3,-8.1,1.6,-84.24,17.42,160.24,0.0,0.0,0.0
2022-11-14,02:38:38.312609,72.53,43.59,-69.65,0.0,0.0,0.0,-84.29,17.33,160.05,0.0,0.0,0.0
2022-11-14,02:38:38.412608,72.65,43.63,-69.62,0.0,0.0,0.0,-84.48,17.25,159.88,0.0,0.0,0.0
2022-11-14,02:38:38.512685,73.18,43.92,-69.65,-0.4,0.6,-1.0,-84.64,17.23,159.89,0.0,0.0,0.0
2022-11-14,02:38:38.794078,74.31,44.87,-70.17,-5.5,10.7,-9.5,-84.8,17.19,159.95,0.0,0.0,0.0
2022-11-14,02:38:38.797588,76.02,48.66,-70.25,-9.8,31.1,-24.3,-84.93,17.13,159.99,0.0,0.0,0.0
2022-11-14,02:38:38.812719,78.89,56.21,-68.57,-10.8,55.60000000000001,-31.8,-84.98,17.18,160.13,0.5,-0.2,0.2
2022-11-14,02:38:38.912681,86.04,65.67,-64.34,-10.9,63.4,-23.599999999999998,-84.68,17.11,160.74,0.0,0.0,0.0
2022-11-14,02:38:39.012693,99.63,74.83,-57.49,-10.4,48.199999999999996,-8.200000000000001,-84.4,17.18,161.4,0.0,0.0,0.0
2022-11-14,02:38:39.112680,118.29,79.75,-47.94,-7.1,20.599999999999998,3.1,-84.4,16.95,161.91,-2.1999999999999997,1.0999999999999999,-1.0999999999999999
2022-11-14,02:38:39.433823,122.92,79.46,-49.53,-2.7,-17.1,6.9,-84.79,17.04,161.97,-3.3000000000000003,3.5000000000000004,-0.2
2022-11-14,02:38:39.438927,117.82,78.17,-53.1,-1.7999999999999998,-31.1,6.0,-84.94,17.17,162.31,-4.3999999999999995,6.0,-0.1
2022-11-14,02:38:39.442735,113.29,76.55,-56.92,0.0,-35.699999999999996,5.8999999999999995,-85.21,17.15,162.22,-5.8999999999999995,9.1,0.4
2022-11-14,02:38:39.512687,111.84,74.89,-57.85,2.1999999999999997,-35.0,5.800000000000001,-85.16,17.22,162.16,0.0,0.0,0.0
2022-11-14,02:38:39.612671,111.78,73.46,-56.86,3.0,-32.800000000000004,4.7,-85.14,17.3,162.36,0.0,0.0,0.0
2022-11-14,02:38:39.712686,112.82,72.46,-55.33,0.0,0.0,0.0,-85.2,17.44,162.53,-0.8,-1.0999999999999999,-0.8
2022-11-14,02:38:39.995199,113.99,71.53,-53.69,-0.2,-0.1,0.0,-85.54,17.48,162.33,-3.3000000000000003,-2.3,-0.8
2022-11-14,02:38:39.998772,114.04,71.14,-52.82,-3.1,-1.3,0.2,-86.03,17.8,162.01,0.0,0.0,0.0
2022-11-14,02:38:40.012723,113.72,71.09,-53.21,-4.8,-2.8000000000000003,1.2,-86.47,18.13,161.75,0.2,0.3,-0.2
2022-11-14,02:38:40.112604,113.44,70.72,-53.69,0.0,0.0,0.0,-86.88,18.21,161.42,0.0,0.0,0.0
2022-11-14,02:38:40.212646,113.47,70.28,-53.94,0.0,0.0,0.0,-87.07,18.12,161.17,0.0,0.0,0.0
2022-11-14,02:38:40.312600,113.71,70.05,-53.89,0.0,0.0,0.0,-87.35,18.15,160.72,0.0,0.0,0.0
2022-11-14,02:38:40.635966,113.98,69.92,-53.93,-0.1,-0.7000000000000001,0.0,-87.9,18.26,160.01,0.0,0.0,0.0
2022-11-14,02:38:40.640893,114.18,69.79,-53.9,0.0,-1.7000000000000002,0.3,-88.48,18.4,159.45,0.0,0.0,0.0
2022-11-14,02:38:40.644874,114.24,68.35,-54.19,3.2,-7.199999999999999,0.6,-88.91,18.66,158.95,-0.6,-0.2,-0.5
2022-11-14,02:38:40.712682,114.86,64.38,-53.14,9.5,-14.7,-4.6,-90.59,20.01,157.93,-8.1,-5.2,-4.5
2022-11-14,02:38:40.812684,115.56,59.38,-52.07,15.0,-13.0,-9.5,-94.09,22.41,156.48,-26.3,-16.7,-15.2
2022-11-14,02:38:40.912692,117.39,54.52,-51.01,17.5,-3.2,-14.000000000000002,-102.29,26.29,150.63,-43.5,-26.200000000000003,-37.2
2022-11-14,02:38:41.194332,119.47,50.85,-48.87,13.600000000000001,12.4,-16.400000000000002,-114.59,29.25,142.43,-40.300000000000004,-27.500000000000004,-49.8
2022-11-14,02:38:41.198047,122.09,48.71,-49.66,-1.6,17.299999999999997,-10.9,-125.58,30.68,135.45,-34.4,-23.599999999999998,-55.1
2022-11-14,02:38:41.212692,126.32,46.77,-55.26,-7.6,11.1,0.7000000000000001,-132.71,29.58,130.12,-22.5,-10.6,-44.800000000000004
2022-11-14,02:38:41.312686,126.8,47.76,-59.12,-11.200000000000001,-1.6,10.299999999999999,-134.76,29.33,129.42,1.9,6.9,1.9
2022-11-14,02:38:41.412695,126.62,52.47,-58.08,-20.200000000000003,-10.4,18.3,-129.55,30.06,136.01,28.4,23.3,53.300000000000004
2022-11-14,02:38:41.512699,125.4,58.07,-56.7,-25.3,-10.299999999999999,25.900000000000002,-118.18,29.93,147.14,47.199999999999996,38.7,75.2
2022-11-14,02:38:41.836155,121.61,63.48,-56.59,0.0,0.0,0.0,-104.39,27.08,159.52,57.99999999999999,48.4,68.7
2022-11-14,02:38:41.841013,115.51,68.57,-57.29,3.9,1.9,-2.9000000000000004,-92.01,22.28,170.56,56.99999999999999,49.1,47.699999999999996
2022-11-14,02:38:41.844946,110.45,72.2,-57.24,10.4,-0.1,-7.1,-84.0,17.43,177.68,43.7,41.9,25.8
2022-11-14,02:38:41.912705,107.17,72.51,-57.57,15.1,-6.6000000000000005,-12.7,-79.77,13.58,-178.39,26.700000000000003,32.0,15.2
2022-11-14,02:38:42.012692,103.65,71.01,-58.46,13.600000000000001,-10.2,-13.3,-77.22,11.05,-175.72,10.8,22.5,10.5
2022-11-14,02:38:42.112685,101.83,68.65,-57.88,11.799999999999999,-9.3,-16.7,-75.87,9.8,-174.68,-3.4000000000000004,14.6,8.9
2022-11-14,02:38:42.395117,102.38,66.67,-57.1,9.4,-2.7,-18.4,-75.34,9.97,-174.76,-12.8,9.4,8.5
2022-11-14,02:38:42.398649,103.12,66.03,-55.76,4.1000000000000005,3.6999999999999997,-19.900000000000002,-75.5,10.72,-175.04,0.0,0.0,0.0
2022-11-14,02:38:42.412706,103.32,66.66,-55.93,-2.5,3.1,-19.400000000000002,-76.01,11.53,-175.53,0.8,0.7000000000000001,0.4
2022-11-14,02:38:42.512647,102.58,67.28,-56.94,0.0,0.7000000000000001,-0.2,-76.22,12.19,-175.72,0.0,0.0,0.0
2022-11-14,02:38:42.612566,102.89,68.2,-57.39,0.0,0.0,0.0,-76.45,12.68,-175.98,0.0,0.0,0.0
2022-11-14,02:38:42.712649,103.76,68.33,-57.96,0.6,-4.1000000000000005,1.2,-76.62,12.95,-176.47,0.0,0.0,0.0
2022-11-14,02:38:43.034967,103.78,67.91,-58.19,0.0,0.0,0.0,-76.77,13.13,-176.9,0.0,0.0,0.0
2022-11-14,02:38:43.040012,103.93,67.84,-57.95,0.0,0.0,0.0,-77.1,13.34,-177.4,0.0,0.0,0.0
2022-11-14,02:38:43.043924,104.05,67.83,-58.1,-2.0,-0.3,1.0,-77.24,13.4,-177.62,1.5,1.9,0.6
2022-11-14,02:38:43.112691,103.59,67.96,-58.39,-3.4000000000000004,-2.4,4.5,-76.07,12.07,-177.23,7.6,8.200000000000001,3.6999999999999997
2022-11-14,02:38:43.212676,101.5,68.62,-59.08,-5.800000000000001,-2.9000000000000004,10.7,-72.68,7.79,-176.63,17.299999999999997,13.900000000000002,2.5
2022-11-14,02:38:43.312652,96.86,70.17,-60.44,-7.6,-6.0,13.200000000000001,-68.93,2.76,-175.66,23.5,17.5,-1.0
2022-11-14,02:38:43.595728,91.34,71.96,-61.67,-4.5,-8.200000000000001,13.5,-65.75,-1.6,-174.16,26.3,20.8,-4.3999999999999995
2022-11-14,02:38:43.599221,86.26,72.64,-62.35,-0.8,-9.8,10.9,-61.53,-7.13,-172.59,25.3,25.1,-6.800000000000001
2022-11-14,02:38:43.612650,83.61,72.31,-62.19,2.4,-9.8,8.200000000000001,-56.93,-13.4,-170.83,15.2,20.9,-9.9
2022-11-14,02:38:43.712608,82.41,71.42,-60.7,2.1999999999999997,-8.9,3.8,-54.57,-17.38,-169.79,-1.0,11.700000000000001,-7.3
2022-11-14,02:38:43.812662,83.62,70.38,-59.33,-0.2,-4.9,-0.7000000000000001,-53.68,-18.61,-169.61,-17.9,1.6,-0.4
2022-11-14,02:38:43.912655,86.86,69.26,-57.61,-2.8000000000000003,-0.1,-3.8,-54.37,-16.56,-169.95,-36.4,-9.4,7.6
2022-11-14,02:38:44.235380,90.99,68.52,-56.56,-4.7,3.5000000000000004,-6.1,-56.2,-11.0,-171.66,-51.9,-18.9,10.5
2022-11-14,02:38:44.240646,94.61,68.02,-57.1,-7.7,2.6,-4.3999999999999995,-58.93,-3.93,-173.93,-59.699999999999996,-22.1,8.1
2022-11-14,02:38:44.244385,97.44,67.65,-57.92,0.0,0.0,0.0,-62.68,3.15,-176.47,-58.9,-23.0,1.0999999999999999
2022-11-14,02:38:44.312642,100.1,67.57,-58.09,1.0,-1.3,2.1999999999999997,-67.43,8.59,-178.9,-54.800000000000004,-20.5,-3.9
2022-11-14,02:38:44.412657,101.95,67.35,-58.03,1.9,-3.5999999999999996,4.3,-71.47,12.28,178.48,-51.300000000000004,-17.9,-6.0
2022-11-14,02:38:44.512666,103.11,67.3,-57.81,0.0,0.0,0.0,-74.67,14.29,176.31,-47.0,-14.899999999999999,-5.8999999999999995
2022-11-14,02:38:44.794294,103.75,67.45,-57.5,0.0,0.0,0.0,-76.91,15.09,175.14,-46.0,-10.5,-3.1
2022-11-14,02:38:44.797890,104.18,67.56,-57.3,0.0,0.0,0.0,-77.84,15.35,174.57,-48.1,-9.3,-3.4000000000000004
2022-11-14,02:38:44.812647,104.63,67.73,-56.94,-0.7000000000000001,1.0999999999999999,0.1,-79.08,15.03,173.94,-49.2,-13.5,-7.5
2022-11-14,02:38:44.912641,105.07,68.31,-56.68,-2.5,3.9,0.0,-82.15,13.1,172.43,-50.2,-23.5,-16.5
2022-11-14,02:38:45.012688,106.54,68.92,-56.25,-3.8,9.5,-1.7000000000000002,-89.79,7.76,168.82,-49.3,-37.9,-36.0
2022-11-14,02:38:45.112649,109.08,69.94,-55.5,0.0,0.0,0.0,-98.98,1.36,167.74,-46.300000000000004,-46.1,-44.5
2022-11-14,02:38:45.434654,112.2,70.84,-55.53,1.5,-5.3,1.4000000000000001,-108.97,-3.66,167.92,-57.4,-40.2,-59.599999999999994
2022-11-14,02:38:45.439783,113.34,70.42,-57.03,4.2,-16.8,4.7,-119.9,-11.96,168.37,-68.60000000000001,-21.0,-47.199999999999996
2022-11-14,02:38:45.443733,112.14,69.59,-58.19,7.199999999999999,-23.799999999999997,5.3,-126.55,-19.99,168.39,-78.8,-4.7,-21.6
2022-11-14,02:38:45.512615,111.15,69.33,-58.13,0.0,0.0,0.0,-128.2,-21.96,167.4,-78.4,0.4,3.5000000000000004
2022-11-14,02:38:45.612608,110.85,69.01,-58.3,0.0,0.0,0.0,-125.47,-20.6,166.11,-81.0,3.5999999999999996,20.200000000000003
2022-11-14,02:38:45.712670,110.53,68.72,-58.52,0.0,-2.0,0.2,-117.33,-14.19,163.43,-85.9,9.5,53.6
2022-11-14,02:38:45.994713,109.91,68.88,-58.22,0.0,0.0,0.0,-103.63,-1.13,161.98,-97.8,27.3,64.9
2022-11-14,02:38:45.998276,109.22,68.69,-57.85,0.5,2.0,0.4,-92.53,10.57,163.65,-107.1,35.0,42.1
2022-11-14,02:38:46.012640,108.76,67.67,-58.08,-0.8999999999999999,5.3,0.2,-85.02,17.31,166.49,-108.80000000000001,30.4,22.400000000000002
2022-11-14,02:38:46.112625,108.89,66.77,-58.72,-2.8000000000000003,8.5,0.6,-79.83,21.74,169.71,-110.9,25.900000000000002,13.200000000000001
2022-11-14,02:38:46.212593,109.62,66.19,-59.2,0.0,-0.1,0.0,-73.62,26.85,173.86,-119.9,31.8,19.0
2022-11-14,02:38:46.312626,110.55,65.91,-59.36,1.7000000000000002,-4.1000000000000005,0.3,-59.18,36.3,-177.63,-135.0,44.0,14.299999999999999
2022-11-14,02:38:46.636490,110.38,65.46,-58.97,0.0,0.0,0.0,-41.96,43.71,-167.17,-137.9,44.5,-1.0
2022-11-14,02:38:46.641447,110.23,65.32,-59.33,0.0,0.0,0.0,-23.6,48.02,-154.29,-137.7,41.8,-11.1
2022-11-14,02:38:46.645512,109.78,65.36,-59.79,0.0,0.0,0.0,-7.28,48.92,-141.56,-134.3,35.0,-13.100000000000001
2022-11-14,02:38:46.712624,108.23,65.22,-60.15,-2.4,2.7,1.0,3.19,48.88,-133.13,-128.0,24.4,-11.4
2022-11-14,02:38:46.812626,107.31,65.53,-60.47,-6.0,8.5,2.0,5.77,48.87,-131.52,-111.5,5.8999999999999995,4.2
2022-11-14,02:38:46.912610,107.24,66.04,-60.67,0.0,0.0,0.0,-2.19,48.51,-137.29,-96.2,-10.8,16.3
2022-11-14,02:38:47.195129,107.92,66.08,-60.45,0.8,0.0,-0.2,-21.91,45.77,-151.92,-81.0,-30.4,15.2
2022-11-14,02:38:47.198724,109.0,65.92,-60.01,2.1,-1.2,1.7999999999999998,-45.78,37.16,-167.38,-79.2,-35.099999999999994,-1.0
2022-11-14,02:38:47.212643,109.1,66.36,-59.28,0.0,0.1,0.0,-61.78,27.59,-174.98,-93.4,-28.4,-14.399999999999999
2022-11-14,02:38:47.312634,109.75,67.64,-57.98,1.4000000000000001,-0.2,-1.0999999999999999,-70.62,22.17,-177.52,-108.1,-14.099999999999998,-9.6
2022-11-14,02:38:47.412641,109.99,68.88,-57.31,3.2,-5.3,-1.5,-74.99,19.79,-177.87,-117.5,-5.3,-9.2
2022-11-14,02:38:47.512634,110.44,69.34,-56.84,6.0,-8.3,-0.8999999999999999,-77.81,18.35,-178.28,-130.29999999999998,4.3999999999999995,-5.800000000000001
2022-11-14,02:38:47.835458,110.14,69.09,-57.01,0.0,0.0,0.0,-79.97,17.82,-179.29,-139.79999999999998,11.799999999999999,-5.7
2022-11-14,02:38:47.840501,110.14,69.04,-57.53,0.0,0.0,0.0,-81.42,17.85,179.92,-147.3,21.0,-1.6
2022-11-14,02:38:47.844421,109.9,68.79,-58.11,-1.0,0.6,0.3,-81.65,18.19,179.4,-152.7,27.700000000000003,1.7000000000000002
2022-11-14,02:38:47.912598,109.62,68.66,-58.82,0.0,0.0,0.0,-81.2,18.54,179.32,-155.5,30.8,1.5
2022-11-14,02:38:48.012665,109.43,68.63,-59.41,-1.5,1.6,-0.2,-80.8,18.82,179.27,-158.9,32.2,0.8
2022-11-14,02:38:48.112588,109.61,68.38,-59.97,0.0,0.0,0.0,-80.32,18.73,179.3,-162.7,33.5,0.7000000000000001
2022-11-14,02:38:48.394521,109.68,68.11,-60.33,0.0,0.0,0.0,-79.93,18.76,179.08,-166.1,33.4,-0.1
2022-11-14,02:38:48.398027,109.91,67.98,-60.47,0.1,-0.6,0.1,-80.01,18.67,178.67,0.0,0.0,0.0
2022-11-14,02:38:48.412625,110.09,67.85,-60.27,0.0,0.0,0.0,-80.2,18.59,178.4,-0.4,0.2,0.0
2022-11-14,02:38:48.512529,110.13,67.76,-59.98,0.0,0.0,0.0,-80.46,18.51,178.04,-2.7,1.3,0.0
2022-11-14,02:38:48.612547,110.12,67.72,-59.74,0.0,0.0,0.0,-80.75,18.5,177.55,0.0,0.0,0.0
2022-11-14,02:38:48.712560,110.11,67.68,-59.58,0.0,0.0,0.0,-81.03,18.47,177.15,0.0,0.1,0.0
2022-11-14,02:38:49.033918,110.13,67.61,-59.71,0.0,0.0,0.0,-81.14,18.38,176.98,0.0,0.0,0.0
2022-11-14,02:38:49.038981,110.2,67.42,-60.34,0.0,0.0,0.0,-81.23,18.16,176.7,-1.2,0.3,-0.1
2022-11-14,02:38:49.042832,110.27,67.18,-60.67,0.3,-3.8,0.4,-81.15,18.05,175.95,0.0,0.0,0.0
2022-11-14,02:38:49.112585,110.24,66.99,-60.06,1.7000000000000002,-2.8000000000000003,0.5,-81.28,17.65,175.5,-0.6,0.5,0.1
2022-11-14,02:38:49.212527,110.18,66.98,-60.07,0.0,0.0,0.0,-81.33,17.7,175.26,0.0,0.0,0.0
2022-11-14,02:38:49.312526,110.34,66.92,-60.14,0.0,0.0,0.0,-81.18,17.81,174.81,0.0,0.0,0.0
2022-11-14,02:38:49.593319,110.31,66.85,-60.47,0.0,0.0,0.0,-81.19,17.82,174.29,0.0,0.0,0.0
2022-11-14,02:38:49.596852,110.11,66.87,-60.57,-0.6,-0.7000000000000001,1.2,-81.34,17.67,173.68,0.0,0.0,0.0
2022-11-14,02:38:49.612635,109.13,66.96,-62.0,-5.3,1.9,1.7000000000000002,-81.88,17.33,172.76,-3.3000000000000003,-1.4000000000000001,-0.8999999999999999
2022-11-14,02:38:49.712578,109.12,66.87,-64.83,-9.700000000000001,6.6000000000000005,1.4000000000000001,-82.63,17.04,170.98,-6.4,-5.0,-1.0
2022-11-14,02:38:49.812578,109.84,67.39,-66.77,0.0,0.0,0.0,-83.31,16.54,169.07,-9.6,-8.7,-0.4
2022-11-14,02:38:49.912590,110.81,69.09,-67.9,0.5,4.5,-0.2,-84.47,15.76,167.01,-15.1,-9.1,-1.0999999999999999
2022-11-14,02:38:50.234051,110.37,68.73,-73.14,-2.1999999999999997,2.9000000000000004,4.9,-86.72,14.96,160.33,-39.4,-10.0,-6.4
2022-11-14,02:38:50.238811,107.44,67.02,-79.7,-6.3,6.6000000000000005,0.7000000000000001,-90.15,10.78,139.03,-71.6,0.6,-12.7
2022-11-14,02:38:50.242858,108.44,65.41,-87.15,0.0,15.8,-10.5,-93.27,3.95,115.42,-72.89999999999999,-2.7,-20.9
2022-11-14,02:38:50.312601,115.02,67.23,-92.65,11.5,20.9,-19.7,-96.29,-0.53,101.86,-77.5,-22.2,-26.700000000000003
2022-11-14,02:38:50.412605,124.97,72.12,-93.58,28.199999999999996,21.7,-11.5,-99.04,-3.88,94.89,-90.4,-35.3,-42.4
2022-11-14,02:38:50.512614,133.59,76.71,-95.37,46.2,18.3,2.1,-101.32,-7.58,90.0,-84.39999999999999,-30.2,-56.99999999999999
2022-11-14,02:38:50.793758,145.45,82.31,-95.54,58.9,11.600000000000001,8.799999999999999,-102.87,-10.96,87.22,-72.3,-17.7,-70.19999999999999
2022-11-14,02:38:50.797340,-114.71,86.93,-5.32,68.30000000000001,-1.7999999999999998,14.399999999999999,-104.26,-14.52,86.32,-61.3,2.8000000000000003,-65.2
2022-11-14,02:38:50.812581,-71.7,79.04,30.24,63.0,-20.0,15.1,-105.11,-16.63,84.77,-47.599999999999994,20.200000000000003,-54.50000000000001
2022-11-14,02:38:50.912564,-71.08,71.94,26.84,42.199999999999996,-29.9,8.6,-105.64,-18.32,82.84,-34.1,27.400000000000002,-40.400000000000006
2022-11-14,02:38:51.012573,-72.4,69.82,24.12,26.0,-34.1,2.3,-106.5,-19.96,81.87,-20.7,31.1,-20.3
2022-11-14,02:38:51.112627,-72.51,70.68,23.69,25.8,-34.699999999999996,-0.3,-107.79,-20.22,81.77,-10.2,34.1,-6.0
2022-11-14,02:38:51.437047,-73.69,71.05,22.4,30.599999999999998,-36.5,1.9,-108.66,-19.49,81.54,-3.6999999999999997,35.8,-3.0
2022-11-14,02:38:51.442410,-75.24,71.55,21.14,22.1,-36.5,1.4000000000000001,-109.51,-19.02,81.39,1.4000000000000001,37.2,7.1
2022-11-14,02:38:51.446457,-82.47,72.3,19.03,-8.0,-39.2,-10.299999999999999,-110.28,-17.98,81.62,6.6000000000000005,37.7,43.7
2022-11-14,02:38:51.512646,-90.67,76.78,18.62,-52.5,-57.599999999999994,-13.600000000000001,-110.03,-14.51,82.76,19.7,36.1,78.8
2022-11-14,02:38:51.612674,-171.7,89.02,-56.15,-75.5,-93.60000000000001,0.3,-108.29,-11.68,84.87,36.9,34.5,85.9
2022-11-14,02:38:51.712678,98.1,74.53,-138.7,-54.800000000000004,-131.9,18.0,-106.54,-8.25,89.5,55.900000000000006,20.200000000000003,81.0
2022-11-14,02:38:51.999313,99.01,62.38,-129.01,-4.3999999999999995,-152.2,22.3,-104.91,0.4,101.96,78.8,10.100000000000001,68.89999999999999
2022-11-14,02:38:52.002848,100.0,55.59,-118.33,56.599999999999994,-150.89999999999998,15.4,-101.33,8.6,119.25,95.89999999999999,19.1,56.3
2022-11-14,02:38:52.012551,103.9,52.46,-106.36,104.0,-144.4,6.800000000000001,-95.7,13.29,136.61,100.1,33.900000000000006,42.6
2022-11-14,02:38:52.112622,110.99,49.65,-91.9,136.60000000000002,-139.6,3.3000000000000003,-90.83,14.75,151.0,92.0,40.2,26.6
2022-11-14,02:38:52.212643,117.28,46.13,-74.97,160.0,-142.9,8.1,-86.89,15.37,160.51,80.80000000000001,34.4,16.3
2022-11-14,02:38:52.312655,124.73,40.59,-56.24,169.2,-142.1,12.6,-83.55,15.66,167.86,72.39999999999999,25.8,10.8
2022-11-14,02:38:52.637786,127.39,34.85,-43.51,145.4,-118.30000000000001,21.2,-81.9,15.46,173.34,55.800000000000004,27.200000000000003,7.6
2022-11-14,02:38:52.643074,137.13,30.4,-39.24,106.89999999999999,-113.3,15.0,-81.91,14.7,177.45,44.1,33.900000000000006,13.0
2022-11-14,02:38:52.647048,132.43,29.0,-31.81,109.3,-90.5,-2.7,-81.17,15.26,-177.99,40.6,32.7,5.5
2022-11-14,02:38:52.712622,132.71,28.91,-24.4,107.2,-90.8,-11.200000000000001,-81.59,15.42,-174.37,36.8,30.4,0.0
2022-11-14,02:38:52.812631,129.23,33.35,-19.28,90.4,-110.60000000000001,-13.600000000000001,-82.02,15.22,-171.31,30.8,28.000000000000004,2.3
2022-11-14,02:38:52.912654,123.32,42.98,-18.67,68.30000000000001,-119.19999999999999,-6.1,-81.21,15.96,-168.32,35.0,22.7,11.700000000000001
2022-11-14,02:38:53.196307,118.34,54.64,-21.17,49.6,-104.3,-8.4,-81.43,15.68,-165.91,38.4,23.400000000000002,19.2
2022-11-14,02:38:53.199809,115.88,67.01,-21.81,46.300000000000004,-82.19999999999999,3.5000000000000004,-81.26,16.37,-164.34,50.7,31.4,12.4
2022-11-14,02:38:53.212608,114.35,74.56,-21.57,58.3,-68.30000000000001,4.6,-83.26,14.46,-162.95,56.89999999999999,45.4,3.5000000000000004
2022-11-14,02:38:53.312573,113.83,79.5,-25.97,78.8,-56.10000000000001,8.799999999999999,-83.6,12.56,-161.79,60.199999999999996,55.900000000000006,-0.7000000000000001
2022-11-14,02:38:53.412579,108.58,82.67,-35.92,106.3,-50.3,12.0,-84.57,10.87,-161.92,71.5,68.7,-7.000000000000001
2022-11-14,02:38:53.512602,95.39,84.14,-52.96,132.7,-50.9,16.5,-84.96,9.15,-162.66,90.9,82.39999999999999,-8.9
2022-11-14,02:38:53.835588,67.57,85.32,-82.84,143.70000000000002,-43.0,37.8,-85.3,6.38,-163.37,113.1,94.19999999999999,-11.0
2022-11-14,02:38:53.840678,-12.76,86.01,-165.42,102.60000000000001,-63.7,40.9,-85.64,3.31,-163.97,127.0,97.2,-8.0
2022-11-14,02:38:53.844590,-35.07,79.75,173.53,96.89999999999999,-70.8,35.699999999999996,-86.58,-1.25,-164.49,106.89999999999999,102.0,-17.4
2022-11-14,02:38:53.912594,-37.71,75.78,172.35,89.2,-70.8,25.5,-87.42,-5.76,-164.79,73.3,104.4,-22.900000000000002
2022-11-14,02:38:54.012600,-38.79,72.32,172.72,83.39999999999999,-75.4,19.5,-88.27,-9.37,-165.71,39.800000000000004,108.0,-12.3
2022-11-14,02:38:54.112587,-39.93,69.83,172.63,77.9,-73.8,13.8,-88.19,-10.91,-166.81,18.0,112.7,-5.4
2022-11-14,02:38:54.393926,-41.41,68.41,171.89,76.0,-76.9,9.3,-88.05,-11.97,-167.81,5.5,115.9,-7.6
2022-11-14,02:38:54.397559,-42.62,68.16,171.92,-0.4,0.7000000000000001,0.8999999999999999,-88.73,-13.07,-168.26,-7.3,119.39999999999999,-5.3
2022-11-14,02:38:54.412600,-42.18,67.75,171.9,0.1,0.0,0.0,-89.58,-13.78,-168.88,-17.599999999999998,124.70000000000002,1.0
2022-11-14,02:38:54.512542,-41.8,67.6,172.21,0.0,0.0,0.0,-90.15,-13.98,-169.34,-21.6,131.4,5.4
2022-11-14,02:38:54.612588,-43.11,67.28,171.65,-0.1,2.0,1.4000000000000001,-90.28,-14.03,-169.71,-23.7,135.3,2.3
2022-11-14,02:38:54.712593,-42.18,67.21,172.24,3.8,-3.1,0.6,-90.74,-14.35,-170.06,-25.5,138.5,2.0
2022-11-14,02:38:55.034887,-42.36,67.04,172.17,4.2,-0.3,2.1,-91.03,-14.44,-170.66,0.0,0.0,0.0
2022-11-14,02:38:55.040144,-39.17,66.97,173.01,1.0999999999999999,-3.2,-0.4,-91.42,-14.8,-171.24,-0.6,1.4000000000000001,1.5
2022-11-14,02:38:55.044014,-38.02,67.17,173.94,0.0,0.0,0.0,-91.46,-14.87,-171.72,-2.4,3.9,3.8
2022-11-14,02:38:55.114216,-37.89,67.15,174.13,-0.1,-0.1,0.7000000000000001,-91.36,-14.85,-172.3,-0.1,0.4,-0.2
2022-11-14,02:38:55.212580,-36.93,66.96,174.8,0.8,-3.0,1.6,-91.48,-14.88,-172.77,0.0,0.0,0.0
2022-11-14,02:38:55.312605,-36.74,66.85,175.24,2.3,-5.7,-0.4,-91.56,-14.88,-173.45,-0.8999999999999999,2.7,0.2
2022-11-14,02:38:55.596770,-38.08,66.87,175.05,0.1,0.8,0.8,-91.54,-15.11,-173.8,0.0,0.0,0.0
2022-11-14,02:38:55.600394,-38.08,66.88,175.17,0.5,-0.5,-0.2,-91.83,-15.27,-173.64,-1.2,0.4,1.0999999999999999
2022-11-14,02:38:55.612580,-38.58,67.02,175.19,0.0,0.0,0.0,-91.89,-15.34,-173.77,0.0,0.0,0.0
2022-11-14,02:38:55.713790,-38.84,66.99,174.92,0.0,0.0,0.0,-91.78,-15.32,-173.96,0.0,0.0,0.0
2022-11-14,02:38:55.812558,-38.86,67.05,175.01,0.0,0.0,0.0,-91.93,-15.28,-174.12,0.0,0.0,0.0
2022-11-14,02:38:55.912503,-38.88,67.06,174.96,0.0,0.0,0.0,-92.09,-15.32,-174.49,0.0,0.2,0.0
2022-11-14,02:38:56.236257,-38.73,67.11,175.1,0.0,0.0,0.0,-92.28,-15.33,-174.74,0.0,0.0,0.0
2022-11-14,02:38:56.241322,-38.29,67.2,175.33,0.0,0.0,0.0,-92.21,-15.32,-174.95,0.0,0.0,0.0
2022-11-14,02:38:56.245304,-37.88,67.26,175.61,0.0,0.0,0.0,-92.06,-15.22,-175.17,0.0,0.0,0.0
2022-11-14,02:38:56.312509,-37.43,67.31,175.92,0.0,0.0,0.0,-92.01,-15.07,-175.38,0.0,0.0,0.0
2022-11-14,02:38:56.412489,-37.28,67.36,176.15,0.0,0.0,0.0,-91.96,-15.01,-175.57,0.0,0.0,0.0
2022-11-14,02:38:56.512493,-37.33,67.35,176.26,0.0,0.0,0.0,-92.02,-14.97,-175.61,0.0,0.0,0.0
2022-11-14,02:38:56.793074,-37.04,67.3,176.51,0.0,0.0,0.0,-92.05,-14.94,-175.63,0.0,0.0,0.0
2022-11-14,02:38:56.796664,-37.34,67.25,176.58,0.0,0.0,0.0,-91.99,-15.0,-175.65,0.0,0.0,0.0
2022-11-14,02:38:56.812477,-37.64,67.21,176.56,0.0,0.0,0.0,-92.0,-15.12,-175.64,0.0,0.0,0.0
2022-11-14,02:38:56.912481,-37.81,67.17,176.52,0.0,0.0,0.0,-92.18,-15.25,-175.57,0.0,0.0,0.0
2022-11-14,02:38:57.012498,-38.0,67.16,176.42,0.0,0.0,0.0,-92.25,-15.31,-175.57,0.0,0.0,0.0
2022-11-14,02:38:57.112507,-38.48,67.13,176.14,0.0,0.3,0.3,-92.33,-15.36,-175.52,0.0,0.0,0.0
2022-11-14,02:38:57.433551,-38.23,67.09,176.12,0.0,0.0,0.0,-92.61,-15.5,-175.3,-0.3,0.0,0.2
2022-11-14,02:38:57.438549,-37.52,67.14,176.4,0.2,-0.3,-0.3,-92.64,-15.5,-175.43,0.0,0.0,0.0
2022-11-14,02:38:57.442489,-37.55,67.24,176.41,0.0,0.0,0.0,-92.49,-15.56,-175.83,0.0,0.0,0.0
2022-11-14,02:38:57.512489,-37.67,67.27,176.27,0.0,0.0,0.0,-92.55,-15.5,-176.01,0.0,0.0,0.0
2022-11-14,02:38:57.612485,-37.6,67.31,176.33,0.0,0.0,0.0,-92.49,-15.36,-175.99,0.0,0.0,0.0
2022-11-14,02:38:57.712559,-37.6,67.36,176.6,0.0,0.0,0.0,-92.63,-15.24,-175.95,0.0,0.0,0.0
2022-11-14,02:38:57.993527,-37.44,67.38,176.78,0.0,0.0,0.0,-92.84,-15.23,-175.98,-0.4,1.2,0.8999999999999999
2022-11-14,02:38:57.997173,-37.92,67.39,176.77,-0.1,0.3,0.2,-92.83,-15.09,-175.83,0.0,0.0,0.0
2022-11-14,02:38:58.012508,-37.83,67.33,176.79,0.0,0.0,0.0,-92.77,-15.01,-175.7,0.0,0.0,0.0
2022-11-14,02:38:58.112463,-37.8,67.34,176.89,0.0,0.0,0.0,-92.58,-14.95,-175.67,0.0,0.0,0.0
2022-11-14,02:38:58.212484,-37.95,67.32,176.76,0.0,0.0,0.0,-92.37,-14.84,-175.71,0.0,0.0,0.0
2022-11-14,02:38:58.312494,-37.78,67.33,176.8,0.0,0.0,0.0,-92.24,-14.57,-175.79,0.0,0.0,0.0
2022-11-14,02:38:58.632882,-37.73,67.33,176.86,0.0,0.0,0.0,-92.22,-14.51,-176.02,0.0,0.0,0.0
2022-11-14,02:38:58.638012,-37.77,67.32,176.78,0.0,0.0,0.0,-92.26,-14.56,-176.33,0.0,0.0,0.0
2022-11-14,02:38:58.641972,-38.14,67.31,176.64,0.0,0.0,0.0,-92.39,-14.64,-176.51,0.0,0.0,0.0
2022-11-14,02:38:58.712595,-38.28,67.29,176.62,-0.1,0.3,0.2,-92.67,-14.77,-176.56,0.0,0.0,0.0
2022-11-14,02:38:58.812499,-37.66,67.31,176.88,0.0,0.0,0.0,-92.89,-14.92,-176.59,-0.5,0.7000000000000001,1.3
2022-11-14,02:38:58.912493,-38.19,67.37,176.81,0.0,0.0,0.0,-92.76,-15.12,-177.01,0.0,0.0,0.0
2022-11-14,02:38:59.192572,-38.83,67.33,176.54,-0.3,0.6,0.5,-92.78,-15.35,-177.97,-0.8,0.0,-0.7000000000000001
2022-11-14,02:38:59.196149,-38.63,67.18,176.45,0.0,0.0,0.0,-93.06,-15.36,-179.35,-1.0,-0.1,0.4
2022-11-14,02:38:59.212461,-38.81,67.02,176.35,0.0,0.0,0.0,-92.83,-15.37,178.6,0.0,0.0,0.0
2022-11-14,02:38:59.312573,-39.45,66.95,175.93,-0.8,1.9,0.5,-92.67,-14.92,176.4,0.0,0.0,0.0
2022-11-14,02:38:59.412588,-38.84,66.99,175.77,0.0,0.0,0.0,-92.69,-13.77,173.87,2.5,1.9,-1.0999999999999999
2022-11-14,02:38:59.512585,-38.29,67.02,175.49,0.0,0.0,0.0,-92.91,-13.26,172.6,6.4,4.0,-2.1999999999999997
2022-11-14,02:38:59.834791,-37.9,67.03,175.41,0.0,0.0,0.0,-93.1,-13.17,172.36,-0.1,0.2,-0.2
2022-11-14,02:38:59.839372,-37.91,67.09,175.14,0.0,0.0,0.0,-93.48,-13.38,172.16,0.0,0.0,0.0
2022-11-14,02:38:59.844214,-37.62,67.18,175.12,0.0,0.0,0.0,-93.97,-13.67,172.17,0.0,0.0,0.0
2022-11-14,02:38:59.912480,-37.29,67.23,174.99,0.0,0.0,0.0,-94.26,-13.9,171.98,0.0,0.0,0.0
2022-11-14,02:39:00.012532,-37.36,67.33,174.91,0.2,0.3,1.9,-94.53,-14.21,171.82,0.0,0.0,0.0
2022-11-14,02:39:00.112521,-36.83,67.05,173.89,0.1,-0.1,0.0,-94.53,-14.42,171.6,0.8,-1.9,-0.1
2022-11-14,02:39:00.396405,-34.38,67.17,174.59,0.0,0.0,0.0,-95.12,-14.92,170.94,1.4000000000000001,-2.1,-3.5000000000000004
2022-11-14,02:39:00.399941,-34.16,66.98,174.2,-4.2,7.5,4.1000000000000005,-95.88,-15.31,171.02,2.3,-0.4,0.7000000000000001
2022-11-14,02:39:00.412593,-30.06,66.48,174.53,0.2,-0.2,-0.4,-94.99,-16.11,170.14,0.0,0.0,0.0
2022-11-14,02:39:00.512554,-26.93,66.42,174.83,1.7000000000000002,-5.5,-3.6999999999999997,-93.95,-16.79,168.82,0.0,0.0,0.0
2022-11-14,02:39:00.612546,-25.94,66.55,174.41,2.0,-10.0,-5.3,-93.22,-17.13,167.73,-1.6,1.3,0.4
2022-11-14,02:39:00.712543,-25.33,66.81,174.41,2.8000000000000003,-14.6,-5.3,-93.21,-17.08,166.98,-2.3,4.2,-1.2
2022-11-14,02:39:01.034255,-25.86,67.1,174.37,-0.4,2.6,0.8999999999999999,-93.92,-16.69,166.75,-0.3,7.9,-2.5
2022-11-14,02:39:01.039541,-25.04,67.11,174.01,0.1,-1.2,-0.7000000000000001,-94.35,-16.51,167.03,0.4,8.200000000000001,0.5
2022-11-14,02:39:01.043246,-25.55,67.3,173.51,0.6,-4.8,-1.4000000000000001,-93.98,-16.31,167.04,0.0,0.0,-0.3
2022-11-14,02:39:01.112507,-27.22,67.28,172.73,0.0,-0.3,0.0,-94.24,-15.89,167.37,1.3,1.0999999999999999,-4.1000000000000005
2022-11-14,02:39:01.212561,-29.19,67.37,172.89,2.6,-6.9,-0.8999999999999999,-95.02,-14.98,168.27,5.1,5.0,-6.800000000000001
2022-11-14,02:39:01.312580,-32.8,67.4,173.19,3.6999999999999997,-3.2,1.5,-96.17,-14.23,169.94,8.200000000000001,9.9,-9.4
2022-11-14,02:39:01.597619,-33.38,67.17,174.1,2.1,3.0,2.8000000000000003,-97.06,-14.02,171.8,8.4,12.2,-6.1
2022-11-14,02:39:01.601364,-33.88,67.07,174.88,0.0,0.5,0.0,-96.74,-13.67,173.59,5.3,11.4,-0.3
2022-11-14,02:39:01.612794,-35.78,66.79,174.3,0.0,0.0,0.0,-95.25,-12.79,174.87,2.8000000000000003,8.5,0.7000000000000001
2022-11-14,02:39:01.712501,-37.31,66.47,173.64,-0.8,2.4,0.8999999999999999,-93.96,-11.73,175.86,0.3,6.5,-1.5
2022-11-14,02:39:01.812450,-37.44,66.29,173.39,0.0,0.0,0.0,-93.32,-11.2,176.35,0.0,0.0,0.0
2022-11-14,02:39:01.912508,-37.68,66.23,173.17,-0.3,1.0999999999999999,0.6,-93.13,-11.06,176.59,-0.6,0.0,0.0
2022-11-14,02:39:02.235827,-36.32,66.13,173.29,0.3,-0.8999999999999999,-0.3,-93.24,-10.8,176.7,0.0,0.0,0.5
2022-11-14,02:39:02.240746,-35.99,66.16,173.47,1.0999999999999999,-4.2,-1.0,-92.7,-10.38,176.62,0.0,0.0,0.0
2022-11-14,02:39:02.244731,-36.56,66.16,173.28,-0.5,0.7000000000000001,0.6,-92.59,-10.11,176.43,0.0,0.0,0.0
2022-11-14,02:39:02.312494,-36.17,66.14,173.42,0.1,-0.8999999999999999,0.0,-92.74,-9.87,176.47,0.0,0.0,0.0
2022-11-14,02:39:02.412442,-36.32,66.14,173.5,0.0,0.0,0.0,-92.88,-9.9,176.5,0.0,0.0,0.0
2022-11-14,02:39:02.512431,-35.75,66.13,173.58,0.0,0.0,0.0,-92.94,-9.95,176.45,0.0,0.0,0.0
2022-11-14,02:39:02.822490,-34.26,66.26,174.27,0.0,0.0,0.0,-92.9,-9.97,176.51,0.0,0.0,0.0
2022-11-14,02:39:02.825997,-34.23,66.37,174.31,0.0,0.0,0.0,-92.89,-9.85,176.38,0.0,0.0,0.0
2022-11-14,02:39:02.829111,-33.99,66.53,174.49,0.0,0.0,0.0,-92.91,-9.69,176.39,0.0,0.0,0.0
2022-11-14,02:39:02.912440,-34.07,66.62,174.44,0.0,0.0,0.0,-92.95,-9.54,176.4,0.0,0.0,0.0
2022-11-14,02:39:03.012440,-33.88,66.75,174.59,0.0,0.0,0.0,-93.01,-9.36,176.4,0.0,0.0,0.0
2022-11-14,02:39:03.112440,-33.64,66.86,174.69,0.0,0.0,0.0,-93.0,-9.29,176.3,0.0,0.0,0.0
